{
  "resourceType": "Bundle",
  "id": "7dd291c6-c6e0-4f22-83f7-187fdb062cde",
  "type": "collection",
  "timestamp": "2022-09-26T09:57:58Z",
  "entry": [
    {
      "fullUrl": "https://fhir.ggyxlz8lbozu.workload-prod-fhiraas.isccloud.io/Patient/ceba63b6dcbda783668cf3efeea1d3dd",
      "resource": {
        "resourceType": "Patient",
        "id": "ceba63b6dcbda783668cf3efeea1d3dd",
        "extension": {
          "extension": {
            "url": "detailed",
            "valueCoding": {
              "system": "urn:oid:2.16.840.1.113883.6.238",
              "code": "2106-3",
              "display": "White"
            }
          },
          "url": "https://hl7.org/fhir/us/core/StructureDefinition/us-core-race"
        },
        "gender": "male",
        "birthDate": "1945-08-06",
        "managingOrganization": {
          "reference": "Organization/b4a528955b84f584974e92d025a75d1f"
        },
        "meta": {
          "lastUpdated": "2022-09-19T14:48:00Z",
          "versionId": "1"
        }
      },
      "search": {
        "mode": "match"
      }
    },
    {
      "fullUrl": "https://fhir.ggyxlz8lbozu.workload-prod-fhiraas.isccloud.io/Condition/d1e3855",
      "resource": {
        "resourceType": "Condition",
        "id": "d1e3855",
        "code": {
          "coding": {
            "system": "https://snomed.info/sct",
            "code": "26929004",
            "display": "Alzheimer's disease"
          }
        },
        "subject": {
          "reference": "Patient/ceba63b6dcbda783668cf3efeea1d3dd"
        },
        "onsetDateTime": "2005-09-22",
        "recordedDate": "2013-12-23",
        "meta": {
          "lastUpdated": "2022-09-19T14:48:00Z",
          "versionId": "1"
        }
      },
      "search": {
        "mode": "match"
      }
    },
    {
      "fullUrl": "https://fhir.ggyxlz8lbozu.workload-prod-fhiraas.isccloud.io/Condition/d1e3884",
      "resource": {
        "resourceType": "Condition",
        "id": "d1e3884",
        "severity": {
          "coding": {
            "system": "https://snomed.info/sct",
            "code": "255604002",
            "display": "Mild"
          }
        },
        "code": {
          "coding": {
            "system": "https://snomed.info/sct",
            "code": "41256004",
            "display": "Presbyopia"
          }
        },
        "bodySite": {
          "text": "EYE DISORDERS"
        },
        "subject": {
          "reference": "Patient/ceba63b6dcbda783668cf3efeea1d3dd"
        },
        "recordedDate": "2013-12-23",
        "meta": {
          "lastUpdated": "2022-09-19T14:48:00Z",
          "versionId": "1"
        }
      },
      "search": {
        "mode": "match"
      }
    },
    {
      "fullUrl": "https://fhir.ggyxlz8lbozu.workload-prod-fhiraas.isccloud.io/Condition/d1e3926",
      "resource": {
        "resourceType": "Condition",
        "id": "d1e3926",
        "severity": {
          "coding": {
            "system": "https://snomed.info/sct",
            "code": "255604002",
            "display": "Mild"
          }
        },
        "code": {
          "coding": {
            "system": "https://snomed.info/sct",
            "code": "3723001",
            "display": "Monarthritis"
          }
        },
        "bodySite": {
          "text": "MUSCULOSKELETAL AND CONNECTIVE TISSUE DISORDERS"
        },
        "subject": {
          "reference": "Patient/ceba63b6dcbda783668cf3efeea1d3dd"
        },
        "recordedDate": "2013-12-23",
        "meta": {
          "lastUpdated": "2022-09-19T14:48:00Z",
          "versionId": "1"
        }
      },
      "search": {
        "mode": "match"
      }
    },
    {
      "fullUrl": "https://fhir.ggyxlz8lbozu.workload-prod-fhiraas.isccloud.io/Condition/d1e3968",
      "resource": {
        "resourceType": "Condition",
        "id": "d1e3968",
        "code": {
          "coding": {
            "system": "https://snomed.info/sct",
            "code": "6638300",
            "display": "Gingivitis"
          }
        },
        "bodySite": {
          "text": "GASTROINTESTINAL DISORDERS"
        },
        "subject": {
          "reference": "Patient/ceba63b6dcbda783668cf3efeea1d3dd"
        },
        "onsetDateTime": "2013-04",
        "recordedDate": "2013-12-23",
        "meta": {
          "lastUpdated": "2022-09-19T14:48:00Z",
          "versionId": "1"
        }
      },
      "search": {
        "mode": "match"
      }
    },
    {
      "fullUrl": "https://fhir.ggyxlz8lbozu.workload-prod-fhiraas.isccloud.io/Condition/d1e4008",
      "resource": {
        "resourceType": "Condition",
        "id": "d1e4008",
        "code": {
          "coding": {
            "system": "https://snomed.info/sct",
            "code": "173342001",
            "display": "Gingival operation"
          }
        },
        "bodySite": {
          "text": "SURGICAL AND MEDICAL PROCEDURES"
        },
        "subject": {
          "reference": "Patient/ceba63b6dcbda783668cf3efeea1d3dd"
        },
        "onsetDateTime": "2013-04",
        "recordedDate": "2013-12-23",
        "meta": {
          "lastUpdated": "2022-09-19T14:48:00Z",
          "versionId": "1"
        }
      },
      "search": {
        "mode": "match"
      }
    },
    {
      "fullUrl": "https://fhir.ggyxlz8lbozu.workload-prod-fhiraas.isccloud.io/Condition/d1e4047",
      "resource": {
        "resourceType": "Condition",
        "id": "d1e4047",
        "severity": {
          "coding": {
            "system": "https://snomed.info/sct",
            "code": "255604002",
            "display": "Mild"
          }
        },
        "code": {
          "coding": {
            "system": "https://snomed.info/sct",
            "code": "36971009",
            "display": "Sinusitis"
          }
        },
        "bodySite": {
          "text": "INFECTIONS AND INFESTATIONS"
        },
        "subject": {
          "reference": "Patient/ceba63b6dcbda783668cf3efeea1d3dd"
        },
        "recordedDate": "2013-12-23",
        "meta": {
          "lastUpdated": "2022-09-19T14:48:00Z",
          "versionId": "1"
        }
      },
      "search": {
        "mode": "match"
      }
    },
    {
      "fullUrl": "https://fhir.ggyxlz8lbozu.workload-prod-fhiraas.isccloud.io/MedicationRequest/ce996cc2ad354d98f4e7ea70270f15d7",
      "resource": {
        "resourceType": "MedicationRequest",
        "id": "ce996cc2ad354d98f4e7ea70270f15d7",
        "status": "active",
        "intent": "order",
        "medicationCodeableConcept": {
          "coding": {
            "system": "https://www.nlm.nih.gov/research/umls/rxnorm",
            "code": "32968",
            "display": "clopidogrel"
          }
        },
        "subject": {
          "reference": "Patient/ceba63b6dcbda783668cf3efeea1d3dd"
        },
        "instantiatesCanonical": "ActivityDefinition/H2Q-MC-LZZT-Placebo-TTS-Admin",
        "dosageInstruction": {
          "route": {
            "coding": {
              "code": "45890007"
            },
            "text": "Transdermal route"
          },
          "doseAndRate": {
            "type": {
              "text": "ordered"
            },
            "doseQuantity": {
              "value": 1,
              "unit": "TPATCH",
              "system": "https://terminology.hl7.org/CodeSystem/v3-orderableDrugForm"
            }
          }
        },
        "meta": {
          "lastUpdated": "2022-09-19T14:48:03Z",
          "versionId": "1"
        }
      },
      "search": {
        "mode": "match"
      }
    },
    {
      "fullUrl": "https://fhir.ggyxlz8lbozu.workload-prod-fhiraas.isccloud.io/MedicationAdministration/ce996cc2ad354d98f4e7ea70270f15d7",
      "resource": {
        "resourceType": "MedicationAdministration",
        "id": "ce996cc2ad354d98f4e7ea70270f15d7",
        "status": "completed",
        "medicationCodeableConcept": {
          "coding": {
            "system": "https://www.nlm.nih.gov/research/umls/rxnorm",
            "code": "32968",
            "display": "clopidogrel"
          }
        },
        "subject": {
          "reference": "Patient/ceba63b6dcbda783668cf3efeea1d3dd"
        },
        "effectivePeriod": {
          "start": "2013-12-23T00:00:00+00:00",
          "end": "2013-12-23T12:00:00+00:00"
        },
        "request": {
          "reference": "MedicationRequest/ce996cc2ad354d98f4e7ea70270f15d7"
        },
        "meta": {
          "lastUpdated": "2022-09-19T14:48:03Z",
          "versionId": "1"
        }
      },
      "search": {
        "mode": "match"
      }
    },
    {
      "fullUrl": "https://fhir.ggyxlz8lbozu.workload-prod-fhiraas.isccloud.io/MedicationAdministration/9c3437b406bf364852171c6b44980da5",
      "resource": {
        "resourceType": "MedicationAdministration",
        "id": "9c3437b406bf364852171c6b44980da5",
        "status": "completed",
        "medicationCodeableConcept": {
          "coding": {
            "system": "https://www.nlm.nih.gov/research/umls/rxnorm",
            "code": "1116632",
            "display": "ticagrelor"
          }
        },
        "subject": {
          "reference": "Patient/ceba63b6dcbda783668cf3efeea1d3dd"
        },
        "effectivePeriod": {
          "start": "2014-01-01T08:26:00+00:00",
          "end": "2014-01-01T20:26:00+00:00"
        },
        "meta": {
          "lastUpdated": "2022-09-19T14:48:03Z",
          "versionId": "1"
        }
      },
      "search": {
        "mode": "match"
      }
    },
    {
      "fullUrl": "https://fhir.ggyxlz8lbozu.workload-prod-fhiraas.isccloud.io/MedicationAdministration/9f47941bf3e7fba58d602571e0550fcc",
      "resource": {
        "resourceType": "MedicationAdministration",
        "id": "9f47941bf3e7fba58d602571e0550fcc",
        "status": "completed",
        "medicationCodeableConcept": {
          "coding": {
            "system": "https://www.nlm.nih.gov/research/umls/rxnorm",
            "code": "1116632",
            "display": "ticagrelor"
          }
        },
        "subject": {
          "reference": "Patient/ceba63b6dcbda783668cf3efeea1d3dd"
        },
        "effectivePeriod": {
          "start": "2014-01-02T08:02:00+00:00",
          "end": "2014-01-02T20:02:00+00:00"
        },
        "meta": {
          "lastUpdated": "2022-09-19T14:48:03Z",
          "versionId": "1"
        }
      },
      "search": {
        "mode": "match"
      }
    },
    {
      "fullUrl": "https://fhir.ggyxlz8lbozu.workload-prod-fhiraas.isccloud.io/MedicationAdministration/cb5007fc035a15e4214466e52763a26e",
      "resource": {
        "resourceType": "MedicationAdministration",
        "id": "cb5007fc035a15e4214466e52763a26e",
        "status": "completed",
        "medicationCodeableConcept": {
          "coding": {
            "system": "https://www.nlm.nih.gov/research/umls/rxnorm",
            "code": "1116632",
            "display": "ticagrelor"
          }
        },
        "subject": {
          "reference": "Patient/ceba63b6dcbda783668cf3efeea1d3dd"
        },
        "effectivePeriod": {
          "start": "2014-01-03T08:13:00+00:00",
          "end": "2014-01-03T20:13:00+00:00"
        },
        "meta": {
          "lastUpdated": "2022-09-19T14:48:03Z",
          "versionId": "1"
        }
      },
      "search": {
        "mode": "match"
      }
    },
    {
      "fullUrl": "https://fhir.ggyxlz8lbozu.workload-prod-fhiraas.isccloud.io/MedicationAdministration/08ff249a9498e41570f0e556b038bfb3",
      "resource": {
        "resourceType": "MedicationAdministration",
        "id": "08ff249a9498e41570f0e556b038bfb3",
        "status": "completed",
        "medicationCodeableConcept": {
          "coding": {
            "system": "https://www.nlm.nih.gov/research/umls/rxnorm",
            "code": "1116632",
            "display": "ticagrelor"
          }
        },
        "subject": {
          "reference": "Patient/ceba63b6dcbda783668cf3efeea1d3dd"
        },
        "effectivePeriod": {
          "start": "2014-01-04T08:06:00+00:00",
          "end": "2014-01-04T20:06:00+00:00"
        },
        "meta": {
          "lastUpdated": "2022-09-19T14:48:03Z",
          "versionId": "1"
        }
      },
      "search": {
        "mode": "match"
      }
    },
    {
      "fullUrl": "https://fhir.ggyxlz8lbozu.workload-prod-fhiraas.isccloud.io/MedicationAdministration/4c87b3da221d99fe9c4b3ea974f2d5f1",
      "resource": {
        "resourceType": "MedicationAdministration",
        "id": "4c87b3da221d99fe9c4b3ea974f2d5f1",
        "status": "completed",
        "medicationCodeableConcept": {
          "coding": {
            "system": "https://www.nlm.nih.gov/research/umls/rxnorm",
            "code": "1116632",
            "display": "ticagrelor"
          }
        },
        "subject": {
          "reference": "Patient/ceba63b6dcbda783668cf3efeea1d3dd"
        },
        "effectivePeriod": {
          "start": "2014-01-05T08:23:00+00:00",
          "end": "2014-01-05T20:23:00+00:00"
        },
        "meta": {
          "lastUpdated": "2022-09-19T14:48:03Z",
          "versionId": "1"
        }
      },
      "search": {
        "mode": "match"
      }
    },
    {
      "fullUrl": "https://fhir.ggyxlz8lbozu.workload-prod-fhiraas.isccloud.io/MedicationAdministration/1b0c9fc97a26e644b415301bfd55f5ab",
      "resource": {
        "resourceType": "MedicationAdministration",
        "id": "1b0c9fc97a26e644b415301bfd55f5ab",
        "status": "completed",
        "medicationCodeableConcept": {
          "coding": {
            "system": "https://www.nlm.nih.gov/research/umls/rxnorm",
            "code": "1116632",
            "display": "ticagrelor"
          }
        },
        "subject": {
          "reference": "Patient/ceba63b6dcbda783668cf3efeea1d3dd"
        },
        "effectivePeriod": {
          "start": "2014-01-06T08:23:00+00:00",
          "end": "2014-01-06T20:23:00+00:00"
        },
        "meta": {
          "lastUpdated": "2022-09-19T14:48:03Z",
          "versionId": "1"
        }
      },
      "search": {
        "mode": "match"
      }
    },
    {
      "fullUrl": "https://fhir.ggyxlz8lbozu.workload-prod-fhiraas.isccloud.io/MedicationAdministration/5e4c5893a7e541116554c47dca2792c2",
      "resource": {
        "resourceType": "MedicationAdministration",
        "id": "5e4c5893a7e541116554c47dca2792c2",
        "status": "completed",
        "medicationCodeableConcept": {
          "coding": {
            "system": "https://www.nlm.nih.gov/research/umls/rxnorm",
            "code": "1116632",
            "display": "ticagrelor"
          }
        },
        "subject": {
          "reference": "Patient/ceba63b6dcbda783668cf3efeea1d3dd"
        },
        "effectivePeriod": {
          "start": "2014-01-07T08:49:00+00:00",
          "end": "2014-01-07T20:49:00+00:00"
        },
        "meta": {
          "lastUpdated": "2022-09-19T14:48:03Z",
          "versionId": "1"
        }
      },
      "search": {
        "mode": "match"
      }
    },
    {
      "fullUrl": "https://fhir.ggyxlz8lbozu.workload-prod-fhiraas.isccloud.io/MedicationAdministration/f54a7939971f1a4bddaea70a6275ec06",
      "resource": {
        "resourceType": "MedicationAdministration",
        "id": "f54a7939971f1a4bddaea70a6275ec06",
        "status": "completed",
        "medicationCodeableConcept": {
          "coding": {
            "system": "https://www.nlm.nih.gov/research/umls/rxnorm",
            "code": "1116632",
            "display": "ticagrelor"
          }
        },
        "subject": {
          "reference": "Patient/ceba63b6dcbda783668cf3efeea1d3dd"
        },
        "effectivePeriod": {
          "start": "2014-01-08T08:21:00+00:00",
          "end": "2014-01-08T20:21:00+00:00"
        },
        "meta": {
          "lastUpdated": "2022-09-19T14:48:03Z",
          "versionId": "1"
        }
      },
      "search": {
        "mode": "match"
      }
    },
    {
      "fullUrl": "https://fhir.ggyxlz8lbozu.workload-prod-fhiraas.isccloud.io/MedicationAdministration/8af0d24f6c3da541b95516eb9605c7f3",
      "resource": {
        "resourceType": "MedicationAdministration",
        "id": "8af0d24f6c3da541b95516eb9605c7f3",
        "status": "completed",
        "medicationCodeableConcept": {
          "coding": {
            "system": "https://www.nlm.nih.gov/research/umls/rxnorm",
            "code": "1116632",
            "display": "ticagrelor"
          }
        },
        "subject": {
          "reference": "Patient/ceba63b6dcbda783668cf3efeea1d3dd"
        },
        "effectivePeriod": {
          "start": "2014-01-09T08:34:00+00:00",
          "end": "2014-01-09T20:34:00+00:00"
        },
        "meta": {
          "lastUpdated": "2022-09-19T14:48:03Z",
          "versionId": "1"
        }
      },
      "search": {
        "mode": "match"
      }
    },
    {
      "fullUrl": "https://fhir.ggyxlz8lbozu.workload-prod-fhiraas.isccloud.io/MedicationAdministration/67229b29713a3965c37915698ae19433",
      "resource": {
        "resourceType": "MedicationAdministration",
        "id": "67229b29713a3965c37915698ae19433",
        "status": "completed",
        "medicationCodeableConcept": {
          "coding": {
            "system": "https://www.nlm.nih.gov/research/umls/rxnorm",
            "code": "1116632",
            "display": "ticagrelor"
          }
        },
        "subject": {
          "reference": "Patient/ceba63b6dcbda783668cf3efeea1d3dd"
        },
        "effectivePeriod": {
          "start": "2014-01-10T08:00:00+00:00",
          "end": "2014-01-10T20:00:00+00:00"
        },
        "meta": {
          "lastUpdated": "2022-09-19T14:48:03Z",
          "versionId": "1"
        }
      },
      "search": {
        "mode": "match"
      }
    },
    {
      "fullUrl": "https://fhir.ggyxlz8lbozu.workload-prod-fhiraas.isccloud.io/MedicationAdministration/92a372976894e824bf26389d2485a489",
      "resource": {
        "resourceType": "MedicationAdministration",
        "id": "92a372976894e824bf26389d2485a489",
        "status": "completed",
        "medicationCodeableConcept": {
          "coding": {
            "system": "https://www.nlm.nih.gov/research/umls/rxnorm",
            "code": "1116632",
            "display": "ticagrelor"
          }
        },
        "subject": {
          "reference": "Patient/ceba63b6dcbda783668cf3efeea1d3dd"
        },
        "effectivePeriod": {
          "start": "2014-01-11T08:34:00+00:00",
          "end": "2014-01-11T20:34:00+00:00"
        },
        "meta": {
          "lastUpdated": "2022-09-19T14:48:03Z",
          "versionId": "1"
        }
      },
      "search": {
        "mode": "match"
      }
    },
    {
      "fullUrl": "https://fhir.ggyxlz8lbozu.workload-prod-fhiraas.isccloud.io/MedicationAdministration/46288383f7ba3a460aa8624187f61220",
      "resource": {
        "resourceType": "MedicationAdministration",
        "id": "46288383f7ba3a460aa8624187f61220",
        "status": "completed",
        "medicationCodeableConcept": {
          "coding": {
            "system": "https://www.nlm.nih.gov/research/umls/rxnorm",
            "code": "1116632",
            "display": "ticagrelor"
          }
        },
        "subject": {
          "reference": "Patient/ceba63b6dcbda783668cf3efeea1d3dd"
        },
        "effectivePeriod": {
          "start": "2014-01-12T08:39:00+00:00",
          "end": "2014-01-12T20:39:00+00:00"
        },
        "meta": {
          "lastUpdated": "2022-09-19T14:48:03Z",
          "versionId": "1"
        }
      },
      "search": {
        "mode": "match"
      }
    },
    {
      "fullUrl": "https://fhir.ggyxlz8lbozu.workload-prod-fhiraas.isccloud.io/MedicationAdministration/dd0f319a7dfe26f3625cf3325cb0901e",
      "resource": {
        "resourceType": "MedicationAdministration",
        "id": "dd0f319a7dfe26f3625cf3325cb0901e",
        "status": "completed",
        "medicationCodeableConcept": {
          "coding": {
            "system": "https://www.nlm.nih.gov/research/umls/rxnorm",
            "code": "1116632",
            "display": "ticagrelor"
          }
        },
        "subject": {
          "reference": "Patient/ceba63b6dcbda783668cf3efeea1d3dd"
        },
        "effectivePeriod": {
          "start": "2014-01-13T08:22:00+00:00",
          "end": "2014-01-13T20:22:00+00:00"
        },
        "meta": {
          "lastUpdated": "2022-09-19T14:48:03Z",
          "versionId": "1"
        }
      },
      "search": {
        "mode": "match"
      }
    },
    {
      "fullUrl": "https://fhir.ggyxlz8lbozu.workload-prod-fhiraas.isccloud.io/MedicationAdministration/8794760a86948be14efeaeb668fc809d",
      "resource": {
        "resourceType": "MedicationAdministration",
        "id": "8794760a86948be14efeaeb668fc809d",
        "status": "completed",
        "medicationCodeableConcept": {
          "coding": {
            "system": "https://www.nlm.nih.gov/research/umls/rxnorm",
            "code": "1116632",
            "display": "ticagrelor"
          }
        },
        "subject": {
          "reference": "Patient/ceba63b6dcbda783668cf3efeea1d3dd"
        },
        "effectivePeriod": {
          "start": "2014-01-14T08:06:00+00:00",
          "end": "2014-01-14T20:06:00+00:00"
        },
        "meta": {
          "lastUpdated": "2022-09-19T14:48:03Z",
          "versionId": "1"
        }
      },
      "search": {
        "mode": "match"
      }
    },
    {
      "fullUrl": "https://fhir.ggyxlz8lbozu.workload-prod-fhiraas.isccloud.io/MedicationAdministration/2307aa6225b0ea0c3e2ba2358fef5a23",
      "resource": {
        "resourceType": "MedicationAdministration",
        "id": "2307aa6225b0ea0c3e2ba2358fef5a23",
        "status": "completed",
        "medicationCodeableConcept": {
          "coding": {
            "system": "https://www.nlm.nih.gov/research/umls/rxnorm",
            "code": "32968",
            "display": "clopidogrel"
          }
        },
        "subject": {
          "reference": "Patient/ceba63b6dcbda783668cf3efeea1d3dd"
        },
        "effectivePeriod": {
          "start": "2014-01-16T08:19:00+00:00",
          "end": "2014-01-16T20:19:00+00:00"
        },
        "meta": {
          "lastUpdated": "2022-09-19T14:48:03Z",
          "versionId": "1"
        }
      },
      "search": {
        "mode": "match"
      }
    },
    {
      "fullUrl": "https://fhir.ggyxlz8lbozu.workload-prod-fhiraas.isccloud.io/MedicationAdministration/1f1a1f425963df6f48ffbf24fca3ecb2",
      "resource": {
        "resourceType": "MedicationAdministration",
        "id": "1f1a1f425963df6f48ffbf24fca3ecb2",
        "status": "completed",
        "medicationCodeableConcept": {
          "coding": {
            "system": "https://www.nlm.nih.gov/research/umls/rxnorm",
            "code": "32968",
            "display": "clopidogrel"
          }
        },
        "subject": {
          "reference": "Patient/ceba63b6dcbda783668cf3efeea1d3dd"
        },
        "effectivePeriod": {
          "start": "2014-01-17T08:19:00+00:00",
          "end": "2014-01-17T20:19:00+00:00"
        },
        "meta": {
          "lastUpdated": "2022-09-19T14:48:03Z",
          "versionId": "1"
        }
      },
      "search": {
        "mode": "match"
      }
    },
    {
      "fullUrl": "https://fhir.ggyxlz8lbozu.workload-prod-fhiraas.isccloud.io/MedicationAdministration/4cde08f42a06aa9301d6e26b5f78c303",
      "resource": {
        "resourceType": "MedicationAdministration",
        "id": "4cde08f42a06aa9301d6e26b5f78c303",
        "status": "completed",
        "medicationCodeableConcept": {
          "coding": {
            "system": "https://www.nlm.nih.gov/research/umls/rxnorm",
            "code": "32968",
            "display": "clopidogrel"
          }
        },
        "subject": {
          "reference": "Patient/ceba63b6dcbda783668cf3efeea1d3dd"
        },
        "effectivePeriod": {
          "start": "2014-01-18T08:56:00+00:00",
          "end": "2014-01-18T20:56:00+00:00"
        },
        "meta": {
          "lastUpdated": "2022-09-19T14:48:03Z",
          "versionId": "1"
        }
      },
      "search": {
        "mode": "match"
      }
    },
    {
      "fullUrl": "https://fhir.ggyxlz8lbozu.workload-prod-fhiraas.isccloud.io/MedicationAdministration/5faff3a4bcf560219bdccbbd1c434de7",
      "resource": {
        "resourceType": "MedicationAdministration",
        "id": "5faff3a4bcf560219bdccbbd1c434de7",
        "status": "completed",
        "medicationCodeableConcept": {
          "coding": {
            "system": "https://www.nlm.nih.gov/research/umls/rxnorm",
            "code": "32968",
            "display": "clopidogrel"
          }
        },
        "subject": {
          "reference": "Patient/ceba63b6dcbda783668cf3efeea1d3dd"
        },
        "effectivePeriod": {
          "start": "2014-01-19T08:11:00+00:00",
          "end": "2014-01-19T20:11:00+00:00"
        },
        "meta": {
          "lastUpdated": "2022-09-19T14:48:03Z",
          "versionId": "1"
        }
      },
      "search": {
        "mode": "match"
      }
    },
    {
      "fullUrl": "https://fhir.ggyxlz8lbozu.workload-prod-fhiraas.isccloud.io/MedicationAdministration/3a8c355c9151a1cc90a03a6fe9f820b1",
      "resource": {
        "resourceType": "MedicationAdministration",
        "id": "3a8c355c9151a1cc90a03a6fe9f820b1",
        "status": "completed",
        "medicationCodeableConcept": {
          "coding": {
            "system": "https://www.nlm.nih.gov/research/umls/rxnorm",
            "code": "32968",
            "display": "clopidogrel"
          }
        },
        "subject": {
          "reference": "Patient/ceba63b6dcbda783668cf3efeea1d3dd"
        },
        "effectivePeriod": {
          "start": "2014-01-20T08:00:00+00:00",
          "end": "2014-01-20T20:00:00+00:00"
        },
        "meta": {
          "lastUpdated": "2022-09-19T14:48:03Z",
          "versionId": "1"
        }
      },
      "search": {
        "mode": "match"
      }
    },
    {
      "fullUrl": "https://fhir.ggyxlz8lbozu.workload-prod-fhiraas.isccloud.io/MedicationAdministration/74001ab9d65941a5bc5e7bcafbc3e8e0",
      "resource": {
        "resourceType": "MedicationAdministration",
        "id": "74001ab9d65941a5bc5e7bcafbc3e8e0",
        "status": "completed",
        "medicationCodeableConcept": {
          "coding": {
            "system": "https://www.nlm.nih.gov/research/umls/rxnorm",
            "code": "32968",
            "display": "clopidogrel"
          }
        },
        "subject": {
          "reference": "Patient/ceba63b6dcbda783668cf3efeea1d3dd"
        },
        "effectivePeriod": {
          "start": "2014-01-21T08:24:00+00:00",
          "end": "2014-01-21T20:24:00+00:00"
        },
        "meta": {
          "lastUpdated": "2022-09-19T14:48:03Z",
          "versionId": "1"
        }
      },
      "search": {
        "mode": "match"
      }
    },
    {
      "fullUrl": "https://fhir.ggyxlz8lbozu.workload-prod-fhiraas.isccloud.io/MedicationAdministration/802eba6393a8e1a85060a25dcaea9d84",
      "resource": {
        "resourceType": "MedicationAdministration",
        "id": "802eba6393a8e1a85060a25dcaea9d84",
        "status": "completed",
        "medicationCodeableConcept": {
          "coding": {
            "system": "https://www.nlm.nih.gov/research/umls/rxnorm",
            "code": "32968",
            "display": "clopidogrel"
          }
        },
        "subject": {
          "reference": "Patient/ceba63b6dcbda783668cf3efeea1d3dd"
        },
        "effectivePeriod": {
          "start": "2014-01-22T08:40:00+00:00",
          "end": "2014-01-22T20:40:00+00:00"
        },
        "meta": {
          "lastUpdated": "2022-09-19T14:48:03Z",
          "versionId": "1"
        }
      },
      "search": {
        "mode": "match"
      }
    },
    {
      "fullUrl": "https://fhir.ggyxlz8lbozu.workload-prod-fhiraas.isccloud.io/MedicationAdministration/b9d994250aba7f051249d67ee188ef84",
      "resource": {
        "resourceType": "MedicationAdministration",
        "id": "b9d994250aba7f051249d67ee188ef84",
        "status": "completed",
        "medicationCodeableConcept": {
          "coding": {
            "system": "https://www.nlm.nih.gov/research/umls/rxnorm",
            "code": "32968",
            "display": "clopidogrel"
          }
        },
        "subject": {
          "reference": "Patient/ceba63b6dcbda783668cf3efeea1d3dd"
        },
        "effectivePeriod": {
          "start": "2014-01-23T08:37:00+00:00",
          "end": "2014-01-23T20:37:00+00:00"
        },
        "meta": {
          "lastUpdated": "2022-09-19T14:48:03Z",
          "versionId": "1"
        }
      },
      "search": {
        "mode": "match"
      }
    },
    {
      "fullUrl": "https://fhir.ggyxlz8lbozu.workload-prod-fhiraas.isccloud.io/MedicationAdministration/2cef6e37d74e2d5d11a91792e2a917a7",
      "resource": {
        "resourceType": "MedicationAdministration",
        "id": "2cef6e37d74e2d5d11a91792e2a917a7",
        "status": "completed",
        "medicationCodeableConcept": {
          "coding": {
            "system": "https://www.nlm.nih.gov/research/umls/rxnorm",
            "code": "32968",
            "display": "clopidogrel"
          }
        },
        "subject": {
          "reference": "Patient/ceba63b6dcbda783668cf3efeea1d3dd"
        },
        "effectivePeriod": {
          "start": "2014-01-24T08:03:00+00:00",
          "end": "2014-01-24T20:03:00+00:00"
        },
        "meta": {
          "lastUpdated": "2022-09-19T14:48:03Z",
          "versionId": "1"
        }
      },
      "search": {
        "mode": "match"
      }
    },
    {
      "fullUrl": "https://fhir.ggyxlz8lbozu.workload-prod-fhiraas.isccloud.io/MedicationAdministration/f2c601e43ab582897bc4618c92128571",
      "resource": {
        "resourceType": "MedicationAdministration",
        "id": "f2c601e43ab582897bc4618c92128571",
        "status": "completed",
        "medicationCodeableConcept": {
          "coding": {
            "system": "https://www.nlm.nih.gov/research/umls/rxnorm",
            "code": "32968",
            "display": "clopidogrel"
          }
        },
        "subject": {
          "reference": "Patient/ceba63b6dcbda783668cf3efeea1d3dd"
        },
        "effectivePeriod": {
          "start": "2014-01-25T08:15:00+00:00",
          "end": "2014-01-25T20:15:00+00:00"
        },
        "meta": {
          "lastUpdated": "2022-09-19T14:48:03Z",
          "versionId": "1"
        }
      },
      "search": {
        "mode": "match"
      }
    },
    {
      "fullUrl": "https://fhir.ggyxlz8lbozu.workload-prod-fhiraas.isccloud.io/MedicationAdministration/0d72fc2865fb84e4cd2643d6ac222b5e",
      "resource": {
        "resourceType": "MedicationAdministration",
        "id": "0d72fc2865fb84e4cd2643d6ac222b5e",
        "status": "completed",
        "medicationCodeableConcept": {
          "coding": {
            "system": "https://www.nlm.nih.gov/research/umls/rxnorm",
            "code": "32968",
            "display": "clopidogrel"
          }
        },
        "subject": {
          "reference": "Patient/ceba63b6dcbda783668cf3efeea1d3dd"
        },
        "effectivePeriod": {
          "start": "2014-01-26T08:23:00+00:00",
          "end": "2014-01-26T20:23:00+00:00"
        },
        "meta": {
          "lastUpdated": "2022-09-19T14:48:03Z",
          "versionId": "1"
        }
      },
      "search": {
        "mode": "match"
      }
    },
    {
      "fullUrl": "https://fhir.ggyxlz8lbozu.workload-prod-fhiraas.isccloud.io/MedicationAdministration/0006347edb91090d8cb428c14abd5677",
      "resource": {
        "resourceType": "MedicationAdministration",
        "id": "0006347edb91090d8cb428c14abd5677",
        "status": "completed",
        "medicationCodeableConcept": {
          "coding": {
            "system": "https://www.nlm.nih.gov/research/umls/rxnorm",
            "code": "32968",
            "display": "clopidogrel"
          }
        },
        "subject": {
          "reference": "Patient/ceba63b6dcbda783668cf3efeea1d3dd"
        },
        "effectivePeriod": {
          "start": "2014-01-27T08:11:00+00:00",
          "end": "2014-01-27T20:11:00+00:00"
        },
        "meta": {
          "lastUpdated": "2022-09-19T14:48:03Z",
          "versionId": "1"
        }
      },
      "search": {
        "mode": "match"
      }
    },
    {
      "fullUrl": "https://fhir.ggyxlz8lbozu.workload-prod-fhiraas.isccloud.io/MedicationAdministration/911caa0f21c714aa6861174a399ea16a",
      "resource": {
        "resourceType": "MedicationAdministration",
        "id": "911caa0f21c714aa6861174a399ea16a",
        "status": "completed",
        "medicationCodeableConcept": {
          "coding": {
            "system": "https://www.nlm.nih.gov/research/umls/rxnorm",
            "code": "32968",
            "display": "clopidogrel"
          }
        },
        "subject": {
          "reference": "Patient/ceba63b6dcbda783668cf3efeea1d3dd"
        },
        "effectivePeriod": {
          "start": "2014-01-28T08:26:00+00:00",
          "end": "2014-01-28T20:26:00+00:00"
        },
        "meta": {
          "lastUpdated": "2022-09-19T14:48:03Z",
          "versionId": "1"
        }
      },
      "search": {
        "mode": "match"
      }
    },
    {
      "fullUrl": "https://fhir.ggyxlz8lbozu.workload-prod-fhiraas.isccloud.io/MedicationAdministration/3e1ccfccebb9bdd8480035d30eec7090",
      "resource": {
        "resourceType": "MedicationAdministration",
        "id": "3e1ccfccebb9bdd8480035d30eec7090",
        "status": "completed",
        "medicationCodeableConcept": {
          "coding": {
            "system": "https://www.nlm.nih.gov/research/umls/rxnorm",
            "code": "32968",
            "display": "clopidogrel"
          }
        },
        "subject": {
          "reference": "Patient/ceba63b6dcbda783668cf3efeea1d3dd"
        },
        "effectivePeriod": {
          "start": "2014-01-29T08:04:00+00:00",
          "end": "2014-01-29T20:04:00+00:00"
        },
        "meta": {
          "lastUpdated": "2022-09-19T14:48:03Z",
          "versionId": "1"
        }
      },
      "search": {
        "mode": "match"
      }
    },
    {
      "fullUrl": "https://fhir.ggyxlz8lbozu.workload-prod-fhiraas.isccloud.io/MedicationAdministration/b9175dd423edb04bf77d69dc0dac8f3c",
      "resource": {
        "resourceType": "MedicationAdministration",
        "id": "b9175dd423edb04bf77d69dc0dac8f3c",
        "status": "completed",
        "medicationCodeableConcept": {
          "coding": {
            "system": "https://www.nlm.nih.gov/research/umls/rxnorm",
            "code": "32968",
            "display": "clopidogrel"
          }
        },
        "subject": {
          "reference": "Patient/ceba63b6dcbda783668cf3efeea1d3dd"
        },
        "effectivePeriod": {
          "start": "2014-01-30T08:25:00+00:00",
          "end": "2014-01-30T20:25:00+00:00"
        },
        "meta": {
          "lastUpdated": "2022-09-19T14:48:03Z",
          "versionId": "1"
        }
      },
      "search": {
        "mode": "match"
      }
    },
    {
      "fullUrl": "https://fhir.ggyxlz8lbozu.workload-prod-fhiraas.isccloud.io/MedicationAdministration/1122006be76e68a76888381f5a25c517",
      "resource": {
        "resourceType": "MedicationAdministration",
        "id": "1122006be76e68a76888381f5a25c517",
        "status": "completed",
        "medicationCodeableConcept": {
          "coding": {
            "system": "https://www.nlm.nih.gov/research/umls/rxnorm",
            "code": "32968",
            "display": "clopidogrel"
          }
        },
        "subject": {
          "reference": "Patient/ceba63b6dcbda783668cf3efeea1d3dd"
        },
        "effectivePeriod": {
          "start": "2014-01-31T08:58:00+00:00",
          "end": "2014-01-31T20:58:00+00:00"
        },
        "meta": {
          "lastUpdated": "2022-09-19T14:48:03Z",
          "versionId": "1"
        }
      },
      "search": {
        "mode": "match"
      }
    },
    {
      "fullUrl": "https://fhir.ggyxlz8lbozu.workload-prod-fhiraas.isccloud.io/MedicationAdministration/e82181b12274f19620fae74c9d2342c7",
      "resource": {
        "resourceType": "MedicationAdministration",
        "id": "e82181b12274f19620fae74c9d2342c7",
        "status": "completed",
        "medicationCodeableConcept": {
          "coding": {
            "system": "https://www.nlm.nih.gov/research/umls/rxnorm",
            "code": "32968",
            "display": "clopidogrel"
          }
        },
        "subject": {
          "reference": "Patient/ceba63b6dcbda783668cf3efeea1d3dd"
        },
        "effectivePeriod": {
          "start": "2014-02-01T08:13:00+00:00",
          "end": "2014-02-01T20:13:00+00:00"
        },
        "meta": {
          "lastUpdated": "2022-09-19T14:48:03Z",
          "versionId": "1"
        }
      },
      "search": {
        "mode": "match"
      }
    },
    {
      "fullUrl": "https://fhir.ggyxlz8lbozu.workload-prod-fhiraas.isccloud.io/MedicationAdministration/8e4559c0f6669c8b38c755c133b5fb8f",
      "resource": {
        "resourceType": "MedicationAdministration",
        "id": "8e4559c0f6669c8b38c755c133b5fb8f",
        "status": "completed",
        "medicationCodeableConcept": {
          "coding": {
            "system": "https://www.nlm.nih.gov/research/umls/rxnorm",
            "code": "32968",
            "display": "clopidogrel"
          }
        },
        "subject": {
          "reference": "Patient/ceba63b6dcbda783668cf3efeea1d3dd"
        },
        "effectivePeriod": {
          "start": "2014-02-02T08:55:00+00:00",
          "end": "2014-02-02T20:55:00+00:00"
        },
        "meta": {
          "lastUpdated": "2022-09-19T14:48:03Z",
          "versionId": "1"
        }
      },
      "search": {
        "mode": "match"
      }
    },
    {
      "fullUrl": "https://fhir.ggyxlz8lbozu.workload-prod-fhiraas.isccloud.io/MedicationAdministration/dc1d3ed8e2004069d016ccdb271badb7",
      "resource": {
        "resourceType": "MedicationAdministration",
        "id": "dc1d3ed8e2004069d016ccdb271badb7",
        "status": "completed",
        "medicationCodeableConcept": {
          "coding": {
            "system": "https://www.nlm.nih.gov/research/umls/rxnorm",
            "code": "32968",
            "display": "clopidogrel"
          }
        },
        "subject": {
          "reference": "Patient/ceba63b6dcbda783668cf3efeea1d3dd"
        },
        "effectivePeriod": {
          "start": "2014-02-03T08:14:00+00:00",
          "end": "2014-02-03T20:14:00+00:00"
        },
        "meta": {
          "lastUpdated": "2022-09-19T14:48:03Z",
          "versionId": "1"
        }
      },
      "search": {
        "mode": "match"
      }
    },
    {
      "fullUrl": "https://fhir.ggyxlz8lbozu.workload-prod-fhiraas.isccloud.io/MedicationAdministration/4df391fe4c3ccbfd94d8ea0713af723b",
      "resource": {
        "resourceType": "MedicationAdministration",
        "id": "4df391fe4c3ccbfd94d8ea0713af723b",
        "status": "completed",
        "medicationCodeableConcept": {
          "coding": {
            "system": "https://www.nlm.nih.gov/research/umls/rxnorm",
            "code": "32968",
            "display": "clopidogrel"
          }
        },
        "subject": {
          "reference": "Patient/ceba63b6dcbda783668cf3efeea1d3dd"
        },
        "effectivePeriod": {
          "start": "2014-02-04T08:54:00+00:00",
          "end": "2014-02-04T20:54:00+00:00"
        },
        "meta": {
          "lastUpdated": "2022-09-19T14:48:03Z",
          "versionId": "1"
        }
      },
      "search": {
        "mode": "match"
      }
    },
    {
      "fullUrl": "https://fhir.ggyxlz8lbozu.workload-prod-fhiraas.isccloud.io/MedicationAdministration/be9fc99c91d2c9ddbbfcd527151b5c8d",
      "resource": {
        "resourceType": "MedicationAdministration",
        "id": "be9fc99c91d2c9ddbbfcd527151b5c8d",
        "status": "completed",
        "medicationCodeableConcept": {
          "coding": {
            "system": "https://www.nlm.nih.gov/research/umls/rxnorm",
            "code": "32968",
            "display": "clopidogrel"
          }
        },
        "subject": {
          "reference": "Patient/ceba63b6dcbda783668cf3efeea1d3dd"
        },
        "effectivePeriod": {
          "start": "2014-02-05T08:06:00+00:00",
          "end": "2014-02-05T20:06:00+00:00"
        },
        "meta": {
          "lastUpdated": "2022-09-19T14:48:03Z",
          "versionId": "1"
        }
      },
      "search": {
        "mode": "match"
      }
    },
    {
      "fullUrl": "https://fhir.ggyxlz8lbozu.workload-prod-fhiraas.isccloud.io/MedicationAdministration/769896054d14087f417882cc9bd95778",
      "resource": {
        "resourceType": "MedicationAdministration",
        "id": "769896054d14087f417882cc9bd95778",
        "status": "completed",
        "medicationCodeableConcept": {
          "coding": {
            "system": "https://www.nlm.nih.gov/research/umls/rxnorm",
            "code": "32968",
            "display": "clopidogrel"
          }
        },
        "subject": {
          "reference": "Patient/ceba63b6dcbda783668cf3efeea1d3dd"
        },
        "effectivePeriod": {
          "start": "2014-02-06T08:37:00+00:00",
          "end": "2014-02-06T20:37:00+00:00"
        },
        "meta": {
          "lastUpdated": "2022-09-19T14:48:03Z",
          "versionId": "1"
        }
      },
      "search": {
        "mode": "match"
      }
    },
    {
      "fullUrl": "https://fhir.ggyxlz8lbozu.workload-prod-fhiraas.isccloud.io/MedicationAdministration/e434c3367effad36b96a40c7dbdbcfb8",
      "resource": {
        "resourceType": "MedicationAdministration",
        "id": "e434c3367effad36b96a40c7dbdbcfb8",
        "status": "completed",
        "medicationCodeableConcept": {
          "coding": {
            "system": "https://www.nlm.nih.gov/research/umls/rxnorm",
            "code": "32968",
            "display": "clopidogrel"
          }
        },
        "subject": {
          "reference": "Patient/ceba63b6dcbda783668cf3efeea1d3dd"
        },
        "effectivePeriod": {
          "start": "2014-02-07T08:15:00+00:00",
          "end": "2014-02-07T20:15:00+00:00"
        },
        "meta": {
          "lastUpdated": "2022-09-19T14:48:03Z",
          "versionId": "1"
        }
      },
      "search": {
        "mode": "match"
      }
    },
    {
      "fullUrl": "https://fhir.ggyxlz8lbozu.workload-prod-fhiraas.isccloud.io/MedicationAdministration/edb99e624a8af599a201d2b00004f5d7",
      "resource": {
        "resourceType": "MedicationAdministration",
        "id": "edb99e624a8af599a201d2b00004f5d7",
        "status": "completed",
        "medicationCodeableConcept": {
          "coding": {
            "system": "https://www.nlm.nih.gov/research/umls/rxnorm",
            "code": "32968",
            "display": "clopidogrel"
          }
        },
        "subject": {
          "reference": "Patient/ceba63b6dcbda783668cf3efeea1d3dd"
        },
        "effectivePeriod": {
          "start": "2014-02-08T08:44:00+00:00",
          "end": "2014-02-08T20:44:00+00:00"
        },
        "meta": {
          "lastUpdated": "2022-09-19T14:48:03Z",
          "versionId": "1"
        }
      },
      "search": {
        "mode": "match"
      }
    },
    {
      "fullUrl": "https://fhir.ggyxlz8lbozu.workload-prod-fhiraas.isccloud.io/MedicationAdministration/9edfbd0cfbfaf95466eb914957469332",
      "resource": {
        "resourceType": "MedicationAdministration",
        "id": "9edfbd0cfbfaf95466eb914957469332",
        "status": "completed",
        "medicationCodeableConcept": {
          "coding": {
            "system": "https://www.nlm.nih.gov/research/umls/rxnorm",
            "code": "32968",
            "display": "clopidogrel"
          }
        },
        "subject": {
          "reference": "Patient/ceba63b6dcbda783668cf3efeea1d3dd"
        },
        "effectivePeriod": {
          "start": "2014-02-09T08:25:00+00:00",
          "end": "2014-02-09T20:25:00+00:00"
        },
        "meta": {
          "lastUpdated": "2022-09-19T14:48:03Z",
          "versionId": "1"
        }
      },
      "search": {
        "mode": "match"
      }
    },
    {
      "fullUrl": "https://fhir.ggyxlz8lbozu.workload-prod-fhiraas.isccloud.io/MedicationAdministration/69eaaac0801daa325b915b7769373677",
      "resource": {
        "resourceType": "MedicationAdministration",
        "id": "69eaaac0801daa325b915b7769373677",
        "status": "completed",
        "medicationCodeableConcept": {
          "coding": {
            "system": "https://www.nlm.nih.gov/research/umls/rxnorm",
            "code": "32968",
            "display": "clopidogrel"
          }
        },
        "subject": {
          "reference": "Patient/ceba63b6dcbda783668cf3efeea1d3dd"
        },
        "effectivePeriod": {
          "start": "2014-02-10T08:51:00+00:00",
          "end": "2014-02-10T20:51:00+00:00"
        },
        "meta": {
          "lastUpdated": "2022-09-19T14:48:03Z",
          "versionId": "1"
        }
      },
      "search": {
        "mode": "match"
      }
    },
    {
      "fullUrl": "https://fhir.ggyxlz8lbozu.workload-prod-fhiraas.isccloud.io/MedicationAdministration/c59d05aef8537dee4cd8366919780258",
      "resource": {
        "resourceType": "MedicationAdministration",
        "id": "c59d05aef8537dee4cd8366919780258",
        "status": "completed",
        "medicationCodeableConcept": {
          "coding": {
            "system": "https://www.nlm.nih.gov/research/umls/rxnorm",
            "code": "32968",
            "display": "clopidogrel"
          }
        },
        "subject": {
          "reference": "Patient/ceba63b6dcbda783668cf3efeea1d3dd"
        },
        "effectivePeriod": {
          "start": "2014-02-11T08:12:00+00:00",
          "end": "2014-02-11T20:12:00+00:00"
        },
        "meta": {
          "lastUpdated": "2022-09-19T14:48:03Z",
          "versionId": "1"
        }
      },
      "search": {
        "mode": "match"
      }
    },
    {
      "fullUrl": "https://fhir.ggyxlz8lbozu.workload-prod-fhiraas.isccloud.io/MedicationAdministration/c8c8e968c7107135b7cb4a92d524423a",
      "resource": {
        "resourceType": "MedicationAdministration",
        "id": "c8c8e968c7107135b7cb4a92d524423a",
        "status": "completed",
        "medicationCodeableConcept": {
          "coding": {
            "system": "https://www.nlm.nih.gov/research/umls/rxnorm",
            "code": "32968",
            "display": "clopidogrel"
          }
        },
        "subject": {
          "reference": "Patient/ceba63b6dcbda783668cf3efeea1d3dd"
        },
        "effectivePeriod": {
          "start": "2014-02-12T08:26:00+00:00",
          "end": "2014-02-12T20:26:00+00:00"
        },
        "meta": {
          "lastUpdated": "2022-09-19T14:48:03Z",
          "versionId": "1"
        }
      },
      "search": {
        "mode": "match"
      }
    },
    {
      "fullUrl": "https://fhir.ggyxlz8lbozu.workload-prod-fhiraas.isccloud.io/MedicationAdministration/911e704a01c8df2c1c2b7916b5f01d48",
      "resource": {
        "resourceType": "MedicationAdministration",
        "id": "911e704a01c8df2c1c2b7916b5f01d48",
        "status": "completed",
        "medicationCodeableConcept": {
          "coding": {
            "system": "https://www.nlm.nih.gov/research/umls/rxnorm",
            "code": "32968",
            "display": "clopidogrel"
          }
        },
        "subject": {
          "reference": "Patient/ceba63b6dcbda783668cf3efeea1d3dd"
        },
        "effectivePeriod": {
          "start": "2014-02-13T08:51:00+00:00",
          "end": "2014-02-13T20:51:00+00:00"
        },
        "meta": {
          "lastUpdated": "2022-09-19T14:48:03Z",
          "versionId": "1"
        }
      },
      "search": {
        "mode": "match"
      }
    },
    {
      "fullUrl": "https://fhir.ggyxlz8lbozu.workload-prod-fhiraas.isccloud.io/MedicationAdministration/45e4e739aad75b33e7a0c9800a517cd5",
      "resource": {
        "resourceType": "MedicationAdministration",
        "id": "45e4e739aad75b33e7a0c9800a517cd5",
        "status": "completed",
        "medicationCodeableConcept": {
          "coding": {
            "system": "https://www.nlm.nih.gov/research/umls/rxnorm",
            "code": "32968",
            "display": "clopidogrel"
          }
        },
        "subject": {
          "reference": "Patient/ceba63b6dcbda783668cf3efeea1d3dd"
        },
        "effectivePeriod": {
          "start": "2014-02-14T08:07:00+00:00",
          "end": "2014-02-14T20:07:00+00:00"
        },
        "meta": {
          "lastUpdated": "2022-09-19T14:48:03Z",
          "versionId": "1"
        }
      },
      "search": {
        "mode": "match"
      }
    },
    {
      "fullUrl": "https://fhir.ggyxlz8lbozu.workload-prod-fhiraas.isccloud.io/MedicationAdministration/9232e7ebf2997375d352799efbf1a761",
      "resource": {
        "resourceType": "MedicationAdministration",
        "id": "9232e7ebf2997375d352799efbf1a761",
        "status": "completed",
        "medicationCodeableConcept": {
          "coding": {
            "system": "https://www.nlm.nih.gov/research/umls/rxnorm",
            "code": "32968",
            "display": "clopidogrel"
          }
        },
        "subject": {
          "reference": "Patient/ceba63b6dcbda783668cf3efeea1d3dd"
        },
        "effectivePeriod": {
          "start": "2014-02-15T08:19:00+00:00",
          "end": "2014-02-15T20:19:00+00:00"
        },
        "meta": {
          "lastUpdated": "2022-09-19T14:48:03Z",
          "versionId": "1"
        }
      },
      "search": {
        "mode": "match"
      }
    },
    {
      "fullUrl": "https://fhir.ggyxlz8lbozu.workload-prod-fhiraas.isccloud.io/MedicationAdministration/7c55106f0be9022660ed6c8645b5ae66",
      "resource": {
        "resourceType": "MedicationAdministration",
        "id": "7c55106f0be9022660ed6c8645b5ae66",
        "status": "completed",
        "medicationCodeableConcept": {
          "coding": {
            "system": "https://www.nlm.nih.gov/research/umls/rxnorm",
            "code": "32968",
            "display": "clopidogrel"
          }
        },
        "subject": {
          "reference": "Patient/ceba63b6dcbda783668cf3efeea1d3dd"
        },
        "effectivePeriod": {
          "start": "2014-02-16T08:26:00+00:00",
          "end": "2014-02-16T20:26:00+00:00"
        },
        "meta": {
          "lastUpdated": "2022-09-19T14:48:03Z",
          "versionId": "1"
        }
      },
      "search": {
        "mode": "match"
      }
    },
    {
      "fullUrl": "https://fhir.ggyxlz8lbozu.workload-prod-fhiraas.isccloud.io/MedicationAdministration/f4082aa9afc2d82959dd1b3bb888d84b",
      "resource": {
        "resourceType": "MedicationAdministration",
        "id": "f4082aa9afc2d82959dd1b3bb888d84b",
        "status": "completed",
        "medicationCodeableConcept": {
          "coding": {
            "system": "https://www.nlm.nih.gov/research/umls/rxnorm",
            "code": "32968",
            "display": "clopidogrel"
          }
        },
        "subject": {
          "reference": "Patient/ceba63b6dcbda783668cf3efeea1d3dd"
        },
        "effectivePeriod": {
          "start": "2014-02-17T08:40:00+00:00",
          "end": "2014-02-17T20:40:00+00:00"
        },
        "meta": {
          "lastUpdated": "2022-09-19T14:48:03Z",
          "versionId": "1"
        }
      },
      "search": {
        "mode": "match"
      }
    },
    {
      "fullUrl": "https://fhir.ggyxlz8lbozu.workload-prod-fhiraas.isccloud.io/MedicationAdministration/c31d082623212dccb590806038b70364",
      "resource": {
        "resourceType": "MedicationAdministration",
        "id": "c31d082623212dccb590806038b70364",
        "status": "completed",
        "medicationCodeableConcept": {
          "coding": {
            "system": "https://www.nlm.nih.gov/research/umls/rxnorm",
            "code": "32968",
            "display": "clopidogrel"
          }
        },
        "subject": {
          "reference": "Patient/ceba63b6dcbda783668cf3efeea1d3dd"
        },
        "effectivePeriod": {
          "start": "2014-02-18T08:29:00+00:00",
          "end": "2014-02-18T20:29:00+00:00"
        },
        "meta": {
          "lastUpdated": "2022-09-19T14:48:03Z",
          "versionId": "1"
        }
      },
      "search": {
        "mode": "match"
      }
    },
    {
      "fullUrl": "https://fhir.ggyxlz8lbozu.workload-prod-fhiraas.isccloud.io/MedicationAdministration/817969e8661a7d081be2d20b948fcac9",
      "resource": {
        "resourceType": "MedicationAdministration",
        "id": "817969e8661a7d081be2d20b948fcac9",
        "status": "completed",
        "medicationCodeableConcept": {
          "coding": {
            "system": "https://www.nlm.nih.gov/research/umls/rxnorm",
            "code": "32968",
            "display": "clopidogrel"
          }
        },
        "subject": {
          "reference": "Patient/ceba63b6dcbda783668cf3efeea1d3dd"
        },
        "effectivePeriod": {
          "start": "2014-02-19T08:11:00+00:00",
          "end": "2014-02-19T20:11:00+00:00"
        },
        "meta": {
          "lastUpdated": "2022-09-19T14:48:03Z",
          "versionId": "1"
        }
      },
      "search": {
        "mode": "match"
      }
    },
    {
      "fullUrl": "https://fhir.ggyxlz8lbozu.workload-prod-fhiraas.isccloud.io/MedicationAdministration/92a62f7d82b507d502f79415ee3fcaf6",
      "resource": {
        "resourceType": "MedicationAdministration",
        "id": "92a62f7d82b507d502f79415ee3fcaf6",
        "status": "completed",
        "medicationCodeableConcept": {
          "coding": {
            "system": "https://www.nlm.nih.gov/research/umls/rxnorm",
            "code": "32968",
            "display": "clopidogrel"
          }
        },
        "subject": {
          "reference": "Patient/ceba63b6dcbda783668cf3efeea1d3dd"
        },
        "effectivePeriod": {
          "start": "2014-02-20T08:57:00+00:00",
          "end": "2014-02-20T20:57:00+00:00"
        },
        "meta": {
          "lastUpdated": "2022-09-19T14:48:03Z",
          "versionId": "1"
        }
      },
      "search": {
        "mode": "match"
      }
    },
    {
      "fullUrl": "https://fhir.ggyxlz8lbozu.workload-prod-fhiraas.isccloud.io/MedicationAdministration/3666a39d1f6b32f5f8b796a181f430b1",
      "resource": {
        "resourceType": "MedicationAdministration",
        "id": "3666a39d1f6b32f5f8b796a181f430b1",
        "status": "completed",
        "medicationCodeableConcept": {
          "coding": {
            "system": "https://www.nlm.nih.gov/research/umls/rxnorm",
            "code": "32968",
            "display": "clopidogrel"
          }
        },
        "subject": {
          "reference": "Patient/ceba63b6dcbda783668cf3efeea1d3dd"
        },
        "effectivePeriod": {
          "start": "2014-02-21T08:26:00+00:00",
          "end": "2014-02-21T20:26:00+00:00"
        },
        "meta": {
          "lastUpdated": "2022-09-19T14:48:03Z",
          "versionId": "1"
        }
      },
      "search": {
        "mode": "match"
      }
    },
    {
      "fullUrl": "https://fhir.ggyxlz8lbozu.workload-prod-fhiraas.isccloud.io/MedicationAdministration/9a26c60f3e8960f42330e35f08129217",
      "resource": {
        "resourceType": "MedicationAdministration",
        "id": "9a26c60f3e8960f42330e35f08129217",
        "status": "completed",
        "medicationCodeableConcept": {
          "coding": {
            "system": "https://www.nlm.nih.gov/research/umls/rxnorm",
            "code": "32968",
            "display": "clopidogrel"
          }
        },
        "subject": {
          "reference": "Patient/ceba63b6dcbda783668cf3efeea1d3dd"
        },
        "effectivePeriod": {
          "start": "2014-02-22T08:53:00+00:00",
          "end": "2014-02-22T20:53:00+00:00"
        },
        "meta": {
          "lastUpdated": "2022-09-19T14:48:03Z",
          "versionId": "1"
        }
      },
      "search": {
        "mode": "match"
      }
    },
    {
      "fullUrl": "https://fhir.ggyxlz8lbozu.workload-prod-fhiraas.isccloud.io/MedicationAdministration/c8cc71db2f89412609d1b16c170220db",
      "resource": {
        "resourceType": "MedicationAdministration",
        "id": "c8cc71db2f89412609d1b16c170220db",
        "status": "completed",
        "medicationCodeableConcept": {
          "coding": {
            "system": "https://www.nlm.nih.gov/research/umls/rxnorm",
            "code": "32968",
            "display": "clopidogrel"
          }
        },
        "subject": {
          "reference": "Patient/ceba63b6dcbda783668cf3efeea1d3dd"
        },
        "effectivePeriod": {
          "start": "2014-02-23T08:55:00+00:00",
          "end": "2014-02-23T20:55:00+00:00"
        },
        "meta": {
          "lastUpdated": "2022-09-19T14:48:03Z",
          "versionId": "1"
        }
      },
      "search": {
        "mode": "match"
      }
    },
    {
      "fullUrl": "https://fhir.ggyxlz8lbozu.workload-prod-fhiraas.isccloud.io/MedicationAdministration/add328b8bb720a59650e105e6b47b880",
      "resource": {
        "resourceType": "MedicationAdministration",
        "id": "add328b8bb720a59650e105e6b47b880",
        "status": "completed",
        "medicationCodeableConcept": {
          "coding": {
            "system": "https://www.nlm.nih.gov/research/umls/rxnorm",
            "code": "32968",
            "display": "clopidogrel"
          }
        },
        "subject": {
          "reference": "Patient/ceba63b6dcbda783668cf3efeea1d3dd"
        },
        "effectivePeriod": {
          "start": "2014-02-24T08:28:00+00:00",
          "end": "2014-02-24T20:28:00+00:00"
        },
        "meta": {
          "lastUpdated": "2022-09-19T14:48:03Z",
          "versionId": "1"
        }
      },
      "search": {
        "mode": "match"
      }
    },
    {
      "fullUrl": "https://fhir.ggyxlz8lbozu.workload-prod-fhiraas.isccloud.io/MedicationAdministration/a61a17c6482f6f593e70ee986d2a9438",
      "resource": {
        "resourceType": "MedicationAdministration",
        "id": "a61a17c6482f6f593e70ee986d2a9438",
        "status": "completed",
        "medicationCodeableConcept": {
          "coding": {
            "system": "https://www.nlm.nih.gov/research/umls/rxnorm",
            "code": "32968",
            "display": "clopidogrel"
          }
        },
        "subject": {
          "reference": "Patient/ceba63b6dcbda783668cf3efeea1d3dd"
        },
        "effectivePeriod": {
          "start": "2014-02-25T08:15:00+00:00",
          "end": "2014-02-25T20:15:00+00:00"
        },
        "meta": {
          "lastUpdated": "2022-09-19T14:48:03Z",
          "versionId": "1"
        }
      },
      "search": {
        "mode": "match"
      }
    },
    {
      "fullUrl": "https://fhir.ggyxlz8lbozu.workload-prod-fhiraas.isccloud.io/MedicationAdministration/f8e0e957202009484a0c671c00fcf963",
      "resource": {
        "resourceType": "MedicationAdministration",
        "id": "f8e0e957202009484a0c671c00fcf963",
        "status": "completed",
        "medicationCodeableConcept": {
          "coding": {
            "system": "https://www.nlm.nih.gov/research/umls/rxnorm",
            "code": "32968",
            "display": "clopidogrel"
          }
        },
        "subject": {
          "reference": "Patient/ceba63b6dcbda783668cf3efeea1d3dd"
        },
        "effectivePeriod": {
          "start": "2014-02-26T08:30:00+00:00",
          "end": "2014-02-26T20:30:00+00:00"
        },
        "meta": {
          "lastUpdated": "2022-09-19T14:48:03Z",
          "versionId": "1"
        }
      },
      "search": {
        "mode": "match"
      }
    },
    {
      "fullUrl": "https://fhir.ggyxlz8lbozu.workload-prod-fhiraas.isccloud.io/MedicationAdministration/dee9a1d2b33a6f46c9cf3a856aa98704",
      "resource": {
        "resourceType": "MedicationAdministration",
        "id": "dee9a1d2b33a6f46c9cf3a856aa98704",
        "status": "completed",
        "medicationCodeableConcept": {
          "coding": {
            "system": "https://www.nlm.nih.gov/research/umls/rxnorm",
            "code": "32968",
            "display": "clopidogrel"
          }
        },
        "subject": {
          "reference": "Patient/ceba63b6dcbda783668cf3efeea1d3dd"
        },
        "effectivePeriod": {
          "start": "2014-02-27T08:33:00+00:00",
          "end": "2014-02-27T20:33:00+00:00"
        },
        "meta": {
          "lastUpdated": "2022-09-19T14:48:03Z",
          "versionId": "1"
        }
      },
      "search": {
        "mode": "match"
      }
    },
    {
      "fullUrl": "https://fhir.ggyxlz8lbozu.workload-prod-fhiraas.isccloud.io/MedicationAdministration/64ca280c5fa7310eb28bedb3165f1df9",
      "resource": {
        "resourceType": "MedicationAdministration",
        "id": "64ca280c5fa7310eb28bedb3165f1df9",
        "status": "completed",
        "medicationCodeableConcept": {
          "coding": {
            "system": "https://www.nlm.nih.gov/research/umls/rxnorm",
            "code": "32968",
            "display": "clopidogrel"
          }
        },
        "subject": {
          "reference": "Patient/ceba63b6dcbda783668cf3efeea1d3dd"
        },
        "effectivePeriod": {
          "start": "2014-02-28T08:36:00+00:00",
          "end": "2014-02-28T20:36:00+00:00"
        },
        "meta": {
          "lastUpdated": "2022-09-19T14:48:03Z",
          "versionId": "1"
        }
      },
      "search": {
        "mode": "match"
      }
    },
    {
      "fullUrl": "https://fhir.ggyxlz8lbozu.workload-prod-fhiraas.isccloud.io/MedicationAdministration/f27573230886bc6aaf1731202cce7f5e",
      "resource": {
        "resourceType": "MedicationAdministration",
        "id": "f27573230886bc6aaf1731202cce7f5e",
        "status": "completed",
        "medicationCodeableConcept": {
          "coding": {
            "system": "https://www.nlm.nih.gov/research/umls/rxnorm",
            "code": "32968",
            "display": "clopidogrel"
          }
        },
        "subject": {
          "reference": "Patient/ceba63b6dcbda783668cf3efeea1d3dd"
        },
        "effectivePeriod": {
          "start": "2014-03-01T08:27:00+00:00",
          "end": "2014-03-01T20:27:00+00:00"
        },
        "meta": {
          "lastUpdated": "2022-09-19T14:48:03Z",
          "versionId": "1"
        }
      },
      "search": {
        "mode": "match"
      }
    },
    {
      "fullUrl": "https://fhir.ggyxlz8lbozu.workload-prod-fhiraas.isccloud.io/MedicationAdministration/5517e74f7470246970a31a1b5764c6f4",
      "resource": {
        "resourceType": "MedicationAdministration",
        "id": "5517e74f7470246970a31a1b5764c6f4",
        "status": "completed",
        "medicationCodeableConcept": {
          "coding": {
            "system": "https://www.nlm.nih.gov/research/umls/rxnorm",
            "code": "32968",
            "display": "clopidogrel"
          }
        },
        "subject": {
          "reference": "Patient/ceba63b6dcbda783668cf3efeea1d3dd"
        },
        "effectivePeriod": {
          "start": "2014-03-02T08:23:00+00:00",
          "end": "2014-03-02T20:23:00+00:00"
        },
        "meta": {
          "lastUpdated": "2022-09-19T14:48:03Z",
          "versionId": "1"
        }
      },
      "search": {
        "mode": "match"
      }
    },
    {
      "fullUrl": "https://fhir.ggyxlz8lbozu.workload-prod-fhiraas.isccloud.io/MedicationAdministration/baa4c36c0144518d5f392b92e9061219",
      "resource": {
        "resourceType": "MedicationAdministration",
        "id": "baa4c36c0144518d5f392b92e9061219",
        "status": "completed",
        "medicationCodeableConcept": {
          "coding": {
            "system": "https://www.nlm.nih.gov/research/umls/rxnorm",
            "code": "32968",
            "display": "clopidogrel"
          }
        },
        "subject": {
          "reference": "Patient/ceba63b6dcbda783668cf3efeea1d3dd"
        },
        "effectivePeriod": {
          "start": "2014-03-03T08:47:00+00:00",
          "end": "2014-03-03T20:47:00+00:00"
        },
        "meta": {
          "lastUpdated": "2022-09-19T14:48:03Z",
          "versionId": "1"
        }
      },
      "search": {
        "mode": "match"
      }
    },
    {
      "fullUrl": "https://fhir.ggyxlz8lbozu.workload-prod-fhiraas.isccloud.io/MedicationAdministration/44187cb30b5de4f73ba3bc83b572c2a0",
      "resource": {
        "resourceType": "MedicationAdministration",
        "id": "44187cb30b5de4f73ba3bc83b572c2a0",
        "status": "completed",
        "medicationCodeableConcept": {
          "coding": {
            "system": "https://www.nlm.nih.gov/research/umls/rxnorm",
            "code": "32968",
            "display": "clopidogrel"
          }
        },
        "subject": {
          "reference": "Patient/ceba63b6dcbda783668cf3efeea1d3dd"
        },
        "effectivePeriod": {
          "start": "2014-03-04T08:50:00+00:00",
          "end": "2014-03-04T20:50:00+00:00"
        },
        "meta": {
          "lastUpdated": "2022-09-19T14:48:03Z",
          "versionId": "1"
        }
      },
      "search": {
        "mode": "match"
      }
    },
    {
      "fullUrl": "https://fhir.ggyxlz8lbozu.workload-prod-fhiraas.isccloud.io/MedicationAdministration/782cf7bd7078d075d3426c7c0c8e296b",
      "resource": {
        "resourceType": "MedicationAdministration",
        "id": "782cf7bd7078d075d3426c7c0c8e296b",
        "status": "completed",
        "medicationCodeableConcept": {
          "coding": {
            "system": "https://www.nlm.nih.gov/research/umls/rxnorm",
            "code": "32968",
            "display": "clopidogrel"
          }
        },
        "subject": {
          "reference": "Patient/ceba63b6dcbda783668cf3efeea1d3dd"
        },
        "effectivePeriod": {
          "start": "2014-03-05T08:28:00+00:00",
          "end": "2014-03-05T20:28:00+00:00"
        },
        "meta": {
          "lastUpdated": "2022-09-19T14:48:03Z",
          "versionId": "1"
        }
      },
      "search": {
        "mode": "match"
      }
    },
    {
      "fullUrl": "https://fhir.ggyxlz8lbozu.workload-prod-fhiraas.isccloud.io/MedicationAdministration/e192fea4284d5bf806312a2d1b669801",
      "resource": {
        "resourceType": "MedicationAdministration",
        "id": "e192fea4284d5bf806312a2d1b669801",
        "status": "completed",
        "medicationCodeableConcept": {
          "coding": {
            "system": "https://www.nlm.nih.gov/research/umls/rxnorm",
            "code": "32968",
            "display": "clopidogrel"
          }
        },
        "subject": {
          "reference": "Patient/ceba63b6dcbda783668cf3efeea1d3dd"
        },
        "effectivePeriod": {
          "start": "2014-03-06T08:32:00+00:00",
          "end": "2014-03-06T20:32:00+00:00"
        },
        "meta": {
          "lastUpdated": "2022-09-19T14:48:03Z",
          "versionId": "1"
        }
      },
      "search": {
        "mode": "match"
      }
    },
    {
      "fullUrl": "https://fhir.ggyxlz8lbozu.workload-prod-fhiraas.isccloud.io/MedicationAdministration/5ca853ed21668c9a5fba5fbb9c31acd6",
      "resource": {
        "resourceType": "MedicationAdministration",
        "id": "5ca853ed21668c9a5fba5fbb9c31acd6",
        "status": "completed",
        "medicationCodeableConcept": {
          "coding": {
            "system": "https://www.nlm.nih.gov/research/umls/rxnorm",
            "code": "32968",
            "display": "clopidogrel"
          }
        },
        "subject": {
          "reference": "Patient/ceba63b6dcbda783668cf3efeea1d3dd"
        },
        "effectivePeriod": {
          "start": "2014-03-07T08:09:00+00:00",
          "end": "2014-03-07T20:09:00+00:00"
        },
        "meta": {
          "lastUpdated": "2022-09-19T14:48:03Z",
          "versionId": "1"
        }
      },
      "search": {
        "mode": "match"
      }
    },
    {
      "fullUrl": "https://fhir.ggyxlz8lbozu.workload-prod-fhiraas.isccloud.io/MedicationAdministration/53f005208b6778719ea136bf449461b4",
      "resource": {
        "resourceType": "MedicationAdministration",
        "id": "53f005208b6778719ea136bf449461b4",
        "status": "completed",
        "medicationCodeableConcept": {
          "coding": {
            "system": "https://www.nlm.nih.gov/research/umls/rxnorm",
            "code": "32968",
            "display": "clopidogrel"
          }
        },
        "subject": {
          "reference": "Patient/ceba63b6dcbda783668cf3efeea1d3dd"
        },
        "effectivePeriod": {
          "start": "2014-03-08T08:59:00+00:00",
          "end": "2014-03-08T20:59:00+00:00"
        },
        "meta": {
          "lastUpdated": "2022-09-19T14:48:03Z",
          "versionId": "1"
        }
      },
      "search": {
        "mode": "match"
      }
    },
    {
      "fullUrl": "https://fhir.ggyxlz8lbozu.workload-prod-fhiraas.isccloud.io/MedicationAdministration/c983632c2e6c51128feb96d772513a07",
      "resource": {
        "resourceType": "MedicationAdministration",
        "id": "c983632c2e6c51128feb96d772513a07",
        "status": "completed",
        "medicationCodeableConcept": {
          "coding": {
            "system": "https://www.nlm.nih.gov/research/umls/rxnorm",
            "code": "32968",
            "display": "clopidogrel"
          }
        },
        "subject": {
          "reference": "Patient/ceba63b6dcbda783668cf3efeea1d3dd"
        },
        "effectivePeriod": {
          "start": "2014-03-09T08:51:00+00:00",
          "end": "2014-03-09T20:51:00+00:00"
        },
        "meta": {
          "lastUpdated": "2022-09-19T14:48:03Z",
          "versionId": "1"
        }
      },
      "search": {
        "mode": "match"
      }
    },
    {
      "fullUrl": "https://fhir.ggyxlz8lbozu.workload-prod-fhiraas.isccloud.io/MedicationAdministration/7f1177bdda34385d9620b44e602faae9",
      "resource": {
        "resourceType": "MedicationAdministration",
        "id": "7f1177bdda34385d9620b44e602faae9",
        "status": "completed",
        "medicationCodeableConcept": {
          "coding": {
            "system": "https://www.nlm.nih.gov/research/umls/rxnorm",
            "code": "32968",
            "display": "clopidogrel"
          }
        },
        "subject": {
          "reference": "Patient/ceba63b6dcbda783668cf3efeea1d3dd"
        },
        "effectivePeriod": {
          "start": "2014-03-10T08:53:00+00:00",
          "end": "2014-03-10T20:53:00+00:00"
        },
        "meta": {
          "lastUpdated": "2022-09-19T14:48:03Z",
          "versionId": "1"
        }
      },
      "search": {
        "mode": "match"
      }
    },
    {
      "fullUrl": "https://fhir.ggyxlz8lbozu.workload-prod-fhiraas.isccloud.io/MedicationAdministration/0d79aea62bade774b06ac6e367a07299",
      "resource": {
        "resourceType": "MedicationAdministration",
        "id": "0d79aea62bade774b06ac6e367a07299",
        "status": "completed",
        "medicationCodeableConcept": {
          "coding": {
            "system": "https://www.nlm.nih.gov/research/umls/rxnorm",
            "code": "32968",
            "display": "clopidogrel"
          }
        },
        "subject": {
          "reference": "Patient/ceba63b6dcbda783668cf3efeea1d3dd"
        },
        "effectivePeriod": {
          "start": "2014-03-11T08:19:00+00:00",
          "end": "2014-03-11T20:19:00+00:00"
        },
        "meta": {
          "lastUpdated": "2022-09-19T14:48:03Z",
          "versionId": "1"
        }
      },
      "search": {
        "mode": "match"
      }
    },
    {
      "fullUrl": "https://fhir.ggyxlz8lbozu.workload-prod-fhiraas.isccloud.io/MedicationAdministration/d13eb19383e3c3ee6bc2ced927ed272e",
      "resource": {
        "resourceType": "MedicationAdministration",
        "id": "d13eb19383e3c3ee6bc2ced927ed272e",
        "status": "completed",
        "medicationCodeableConcept": {
          "coding": {
            "system": "https://www.nlm.nih.gov/research/umls/rxnorm",
            "code": "32968",
            "display": "clopidogrel"
          }
        },
        "subject": {
          "reference": "Patient/ceba63b6dcbda783668cf3efeea1d3dd"
        },
        "effectivePeriod": {
          "start": "2014-03-12T08:30:00+00:00",
          "end": "2014-03-12T20:30:00+00:00"
        },
        "meta": {
          "lastUpdated": "2022-09-19T14:48:03Z",
          "versionId": "1"
        }
      },
      "search": {
        "mode": "match"
      }
    },
    {
      "fullUrl": "https://fhir.ggyxlz8lbozu.workload-prod-fhiraas.isccloud.io/MedicationAdministration/e9acd92b25fd9cf2a78d7dc42b8c1039",
      "resource": {
        "resourceType": "MedicationAdministration",
        "id": "e9acd92b25fd9cf2a78d7dc42b8c1039",
        "status": "completed",
        "medicationCodeableConcept": {
          "coding": {
            "system": "https://www.nlm.nih.gov/research/umls/rxnorm",
            "code": "32968",
            "display": "clopidogrel"
          }
        },
        "subject": {
          "reference": "Patient/ceba63b6dcbda783668cf3efeea1d3dd"
        },
        "effectivePeriod": {
          "start": "2014-03-13T08:54:00+00:00",
          "end": "2014-03-13T20:54:00+00:00"
        },
        "meta": {
          "lastUpdated": "2022-09-19T14:48:03Z",
          "versionId": "1"
        }
      },
      "search": {
        "mode": "match"
      }
    },
    {
      "fullUrl": "https://fhir.ggyxlz8lbozu.workload-prod-fhiraas.isccloud.io/MedicationAdministration/e0bfd1500e0715c52a56f82e1359cc34",
      "resource": {
        "resourceType": "MedicationAdministration",
        "id": "e0bfd1500e0715c52a56f82e1359cc34",
        "status": "completed",
        "medicationCodeableConcept": {
          "coding": {
            "system": "https://www.nlm.nih.gov/research/umls/rxnorm",
            "code": "32968",
            "display": "clopidogrel"
          }
        },
        "subject": {
          "reference": "Patient/ceba63b6dcbda783668cf3efeea1d3dd"
        },
        "effectivePeriod": {
          "start": "2014-03-14T08:39:00+00:00",
          "end": "2014-03-14T20:39:00+00:00"
        },
        "meta": {
          "lastUpdated": "2022-09-19T14:48:03Z",
          "versionId": "1"
        }
      },
      "search": {
        "mode": "match"
      }
    },
    {
      "fullUrl": "https://fhir.ggyxlz8lbozu.workload-prod-fhiraas.isccloud.io/MedicationAdministration/b64070b838b0bf8b9232322be8c8bcad",
      "resource": {
        "resourceType": "MedicationAdministration",
        "id": "b64070b838b0bf8b9232322be8c8bcad",
        "status": "completed",
        "medicationCodeableConcept": {
          "coding": {
            "system": "https://www.nlm.nih.gov/research/umls/rxnorm",
            "code": "32968",
            "display": "clopidogrel"
          }
        },
        "subject": {
          "reference": "Patient/ceba63b6dcbda783668cf3efeea1d3dd"
        },
        "effectivePeriod": {
          "start": "2014-03-15T08:35:00+00:00",
          "end": "2014-03-15T20:35:00+00:00"
        },
        "meta": {
          "lastUpdated": "2022-09-19T14:48:03Z",
          "versionId": "1"
        }
      },
      "search": {
        "mode": "match"
      }
    },
    {
      "fullUrl": "https://fhir.ggyxlz8lbozu.workload-prod-fhiraas.isccloud.io/MedicationAdministration/b2dad353c48afb9752b5ee19095aa812",
      "resource": {
        "resourceType": "MedicationAdministration",
        "id": "b2dad353c48afb9752b5ee19095aa812",
        "status": "completed",
        "medicationCodeableConcept": {
          "coding": {
            "system": "https://www.nlm.nih.gov/research/umls/rxnorm",
            "code": "32968",
            "display": "clopidogrel"
          }
        },
        "subject": {
          "reference": "Patient/ceba63b6dcbda783668cf3efeea1d3dd"
        },
        "effectivePeriod": {
          "start": "2014-03-16T08:10:00+00:00",
          "end": "2014-03-16T20:10:00+00:00"
        },
        "meta": {
          "lastUpdated": "2022-09-19T14:48:03Z",
          "versionId": "1"
        }
      },
      "search": {
        "mode": "match"
      }
    },
    {
      "fullUrl": "https://fhir.ggyxlz8lbozu.workload-prod-fhiraas.isccloud.io/MedicationAdministration/61fc94abd362c9d2f06ef3b316487abd",
      "resource": {
        "resourceType": "MedicationAdministration",
        "id": "61fc94abd362c9d2f06ef3b316487abd",
        "status": "completed",
        "medicationCodeableConcept": {
          "coding": {
            "system": "https://www.nlm.nih.gov/research/umls/rxnorm",
            "code": "32968",
            "display": "clopidogrel"
          }
        },
        "subject": {
          "reference": "Patient/ceba63b6dcbda783668cf3efeea1d3dd"
        },
        "effectivePeriod": {
          "start": "2014-03-17T08:14:00+00:00",
          "end": "2014-03-17T20:14:00+00:00"
        },
        "meta": {
          "lastUpdated": "2022-09-19T14:48:03Z",
          "versionId": "1"
        }
      },
      "search": {
        "mode": "match"
      }
    },
    {
      "fullUrl": "https://fhir.ggyxlz8lbozu.workload-prod-fhiraas.isccloud.io/MedicationAdministration/ac02ade5e9c84e917d982f4c76e906d3",
      "resource": {
        "resourceType": "MedicationAdministration",
        "id": "ac02ade5e9c84e917d982f4c76e906d3",
        "status": "completed",
        "medicationCodeableConcept": {
          "coding": {
            "system": "https://www.nlm.nih.gov/research/umls/rxnorm",
            "code": "32968",
            "display": "clopidogrel"
          }
        },
        "subject": {
          "reference": "Patient/ceba63b6dcbda783668cf3efeea1d3dd"
        },
        "effectivePeriod": {
          "start": "2014-03-18T08:54:00+00:00",
          "end": "2014-03-18T20:54:00+00:00"
        },
        "meta": {
          "lastUpdated": "2022-09-19T14:48:03Z",
          "versionId": "1"
        }
      },
      "search": {
        "mode": "match"
      }
    },
    {
      "fullUrl": "https://fhir.ggyxlz8lbozu.workload-prod-fhiraas.isccloud.io/MedicationAdministration/dcad7a1351b7af05bffa847893b9e4fe",
      "resource": {
        "resourceType": "MedicationAdministration",
        "id": "dcad7a1351b7af05bffa847893b9e4fe",
        "status": "completed",
        "medicationCodeableConcept": {
          "coding": {
            "system": "https://www.nlm.nih.gov/research/umls/rxnorm",
            "code": "32968",
            "display": "clopidogrel"
          }
        },
        "subject": {
          "reference": "Patient/ceba63b6dcbda783668cf3efeea1d3dd"
        },
        "effectivePeriod": {
          "start": "2014-03-19T08:40:00+00:00",
          "end": "2014-03-19T20:40:00+00:00"
        },
        "meta": {
          "lastUpdated": "2022-09-19T14:48:03Z",
          "versionId": "1"
        }
      },
      "search": {
        "mode": "match"
      }
    },
    {
      "fullUrl": "https://fhir.ggyxlz8lbozu.workload-prod-fhiraas.isccloud.io/MedicationAdministration/a4a3f15b2295c750c6bab9a90acf2669",
      "resource": {
        "resourceType": "MedicationAdministration",
        "id": "a4a3f15b2295c750c6bab9a90acf2669",
        "status": "completed",
        "medicationCodeableConcept": {
          "coding": {
            "system": "https://www.nlm.nih.gov/research/umls/rxnorm",
            "code": "32968",
            "display": "clopidogrel"
          }
        },
        "subject": {
          "reference": "Patient/ceba63b6dcbda783668cf3efeea1d3dd"
        },
        "effectivePeriod": {
          "start": "2014-03-20T08:28:00+00:00",
          "end": "2014-03-20T20:28:00+00:00"
        },
        "meta": {
          "lastUpdated": "2022-09-19T14:48:03Z",
          "versionId": "1"
        }
      },
      "search": {
        "mode": "match"
      }
    },
    {
      "fullUrl": "https://fhir.ggyxlz8lbozu.workload-prod-fhiraas.isccloud.io/MedicationAdministration/c430e8e61fcf3418a63250afba79bcce",
      "resource": {
        "resourceType": "MedicationAdministration",
        "id": "c430e8e61fcf3418a63250afba79bcce",
        "status": "completed",
        "medicationCodeableConcept": {
          "coding": {
            "system": "https://www.nlm.nih.gov/research/umls/rxnorm",
            "code": "32968",
            "display": "clopidogrel"
          }
        },
        "subject": {
          "reference": "Patient/ceba63b6dcbda783668cf3efeea1d3dd"
        },
        "effectivePeriod": {
          "start": "2014-03-21T08:41:00+00:00",
          "end": "2014-03-21T20:41:00+00:00"
        },
        "meta": {
          "lastUpdated": "2022-09-19T14:48:03Z",
          "versionId": "1"
        }
      },
      "search": {
        "mode": "match"
      }
    },
    {
      "fullUrl": "https://fhir.ggyxlz8lbozu.workload-prod-fhiraas.isccloud.io/MedicationAdministration/26a782301a136b07a093d5a5a1525f76",
      "resource": {
        "resourceType": "MedicationAdministration",
        "id": "26a782301a136b07a093d5a5a1525f76",
        "status": "completed",
        "medicationCodeableConcept": {
          "coding": {
            "system": "https://www.nlm.nih.gov/research/umls/rxnorm",
            "code": "32968",
            "display": "clopidogrel"
          }
        },
        "subject": {
          "reference": "Patient/ceba63b6dcbda783668cf3efeea1d3dd"
        },
        "effectivePeriod": {
          "start": "2014-03-22T08:19:00+00:00",
          "end": "2014-03-22T20:19:00+00:00"
        },
        "meta": {
          "lastUpdated": "2022-09-19T14:48:03Z",
          "versionId": "1"
        }
      },
      "search": {
        "mode": "match"
      }
    },
    {
      "fullUrl": "https://fhir.ggyxlz8lbozu.workload-prod-fhiraas.isccloud.io/MedicationAdministration/193400c16598321022342d45090589c0",
      "resource": {
        "resourceType": "MedicationAdministration",
        "id": "193400c16598321022342d45090589c0",
        "status": "completed",
        "medicationCodeableConcept": {
          "coding": {
            "system": "https://www.nlm.nih.gov/research/umls/rxnorm",
            "code": "32968",
            "display": "clopidogrel"
          }
        },
        "subject": {
          "reference": "Patient/ceba63b6dcbda783668cf3efeea1d3dd"
        },
        "effectivePeriod": {
          "start": "2014-03-23T08:14:00+00:00",
          "end": "2014-03-23T20:14:00+00:00"
        },
        "meta": {
          "lastUpdated": "2022-09-19T14:48:03Z",
          "versionId": "1"
        }
      },
      "search": {
        "mode": "match"
      }
    },
    {
      "fullUrl": "https://fhir.ggyxlz8lbozu.workload-prod-fhiraas.isccloud.io/MedicationAdministration/2ff284a64ff06af8c32b8a62be2076fb",
      "resource": {
        "resourceType": "MedicationAdministration",
        "id": "2ff284a64ff06af8c32b8a62be2076fb",
        "status": "completed",
        "medicationCodeableConcept": {
          "coding": {
            "system": "https://www.nlm.nih.gov/research/umls/rxnorm",
            "code": "32968",
            "display": "clopidogrel"
          }
        },
        "subject": {
          "reference": "Patient/ceba63b6dcbda783668cf3efeea1d3dd"
        },
        "effectivePeriod": {
          "start": "2014-03-24T08:09:00+00:00",
          "end": "2014-03-24T20:09:00+00:00"
        },
        "meta": {
          "lastUpdated": "2022-09-19T14:48:03Z",
          "versionId": "1"
        }
      },
      "search": {
        "mode": "match"
      }
    },
    {
      "fullUrl": "https://fhir.ggyxlz8lbozu.workload-prod-fhiraas.isccloud.io/MedicationAdministration/0662f669262dd25f7830fec109fd35da",
      "resource": {
        "resourceType": "MedicationAdministration",
        "id": "0662f669262dd25f7830fec109fd35da",
        "status": "completed",
        "medicationCodeableConcept": {
          "coding": {
            "system": "https://www.nlm.nih.gov/research/umls/rxnorm",
            "code": "32968",
            "display": "clopidogrel"
          }
        },
        "subject": {
          "reference": "Patient/ceba63b6dcbda783668cf3efeea1d3dd"
        },
        "effectivePeriod": {
          "start": "2014-03-25T09:00:00+00:00",
          "end": "2014-03-25T21:00:00+00:00"
        },
        "meta": {
          "lastUpdated": "2022-09-19T14:48:03Z",
          "versionId": "1"
        }
      },
      "search": {
        "mode": "match"
      }
    },
    {
      "fullUrl": "https://fhir.ggyxlz8lbozu.workload-prod-fhiraas.isccloud.io/MedicationAdministration/15dc7fa56c31e54c44e0883496f73fae",
      "resource": {
        "resourceType": "MedicationAdministration",
        "id": "15dc7fa56c31e54c44e0883496f73fae",
        "status": "completed",
        "medicationCodeableConcept": {
          "coding": {
            "system": "https://www.nlm.nih.gov/research/umls/rxnorm",
            "code": "32968",
            "display": "clopidogrel"
          }
        },
        "subject": {
          "reference": "Patient/ceba63b6dcbda783668cf3efeea1d3dd"
        },
        "effectivePeriod": {
          "start": "2014-03-26T08:08:00+00:00",
          "end": "2014-03-26T20:08:00+00:00"
        },
        "meta": {
          "lastUpdated": "2022-09-19T14:48:03Z",
          "versionId": "1"
        }
      },
      "search": {
        "mode": "match"
      }
    },
    {
      "fullUrl": "https://fhir.ggyxlz8lbozu.workload-prod-fhiraas.isccloud.io/MedicationAdministration/7168c46348b6af6b25ccabf03926f9a6",
      "resource": {
        "resourceType": "MedicationAdministration",
        "id": "7168c46348b6af6b25ccabf03926f9a6",
        "status": "completed",
        "medicationCodeableConcept": {
          "coding": {
            "system": "https://www.nlm.nih.gov/research/umls/rxnorm",
            "code": "32968",
            "display": "clopidogrel"
          }
        },
        "subject": {
          "reference": "Patient/ceba63b6dcbda783668cf3efeea1d3dd"
        },
        "effectivePeriod": {
          "start": "2014-03-27T08:37:00+00:00",
          "end": "2014-03-27T20:37:00+00:00"
        },
        "meta": {
          "lastUpdated": "2022-09-19T14:48:03Z",
          "versionId": "1"
        }
      },
      "search": {
        "mode": "match"
      }
    },
    {
      "fullUrl": "https://fhir.ggyxlz8lbozu.workload-prod-fhiraas.isccloud.io/MedicationAdministration/83464412791c4686501a3b55c8b5cbaa",
      "resource": {
        "resourceType": "MedicationAdministration",
        "id": "83464412791c4686501a3b55c8b5cbaa",
        "status": "completed",
        "medicationCodeableConcept": {
          "coding": {
            "system": "https://www.nlm.nih.gov/research/umls/rxnorm",
            "code": "32968",
            "display": "clopidogrel"
          }
        },
        "subject": {
          "reference": "Patient/ceba63b6dcbda783668cf3efeea1d3dd"
        },
        "effectivePeriod": {
          "start": "2014-03-28T08:16:00+00:00",
          "end": "2014-03-28T20:16:00+00:00"
        },
        "meta": {
          "lastUpdated": "2022-09-19T14:48:03Z",
          "versionId": "1"
        }
      },
      "search": {
        "mode": "match"
      }
    },
    {
      "fullUrl": "https://fhir.ggyxlz8lbozu.workload-prod-fhiraas.isccloud.io/MedicationAdministration/e378777873f327d2ab7f6f4aa5c58975",
      "resource": {
        "resourceType": "MedicationAdministration",
        "id": "e378777873f327d2ab7f6f4aa5c58975",
        "status": "completed",
        "medicationCodeableConcept": {
          "coding": {
            "system": "https://www.nlm.nih.gov/research/umls/rxnorm",
            "code": "32968",
            "display": "clopidogrel"
          }
        },
        "subject": {
          "reference": "Patient/ceba63b6dcbda783668cf3efeea1d3dd"
        },
        "effectivePeriod": {
          "start": "2014-03-29T08:09:00+00:00",
          "end": "2014-03-29T20:09:00+00:00"
        },
        "meta": {
          "lastUpdated": "2022-09-19T14:48:03Z",
          "versionId": "1"
        }
      },
      "search": {
        "mode": "match"
      }
    },
    {
      "fullUrl": "https://fhir.ggyxlz8lbozu.workload-prod-fhiraas.isccloud.io/MedicationAdministration/23b1f01281f4c5d685f2890f35f521a8",
      "resource": {
        "resourceType": "MedicationAdministration",
        "id": "23b1f01281f4c5d685f2890f35f521a8",
        "status": "completed",
        "medicationCodeableConcept": {
          "coding": {
            "system": "https://www.nlm.nih.gov/research/umls/rxnorm",
            "code": "32968",
            "display": "clopidogrel"
          }
        },
        "subject": {
          "reference": "Patient/ceba63b6dcbda783668cf3efeea1d3dd"
        },
        "effectivePeriod": {
          "start": "2014-03-30T08:20:00+00:00",
          "end": "2014-03-30T20:20:00+00:00"
        },
        "meta": {
          "lastUpdated": "2022-09-19T14:48:03Z",
          "versionId": "1"
        }
      },
      "search": {
        "mode": "match"
      }
    },
    {
      "fullUrl": "https://fhir.ggyxlz8lbozu.workload-prod-fhiraas.isccloud.io/MedicationAdministration/8a796cab074218d7e66cec28e7da8896",
      "resource": {
        "resourceType": "MedicationAdministration",
        "id": "8a796cab074218d7e66cec28e7da8896",
        "status": "completed",
        "medicationCodeableConcept": {
          "coding": {
            "system": "https://www.nlm.nih.gov/research/umls/rxnorm",
            "code": "32968",
            "display": "clopidogrel"
          }
        },
        "subject": {
          "reference": "Patient/ceba63b6dcbda783668cf3efeea1d3dd"
        },
        "effectivePeriod": {
          "start": "2014-03-31T08:50:00+00:00",
          "end": "2014-03-31T20:50:00+00:00"
        },
        "meta": {
          "lastUpdated": "2022-09-19T14:48:03Z",
          "versionId": "1"
        }
      },
      "search": {
        "mode": "match"
      }
    },
    {
      "fullUrl": "https://fhir.ggyxlz8lbozu.workload-prod-fhiraas.isccloud.io/MedicationAdministration/7fd4afa2234ef6e0b99c71a4497158ef",
      "resource": {
        "resourceType": "MedicationAdministration",
        "id": "7fd4afa2234ef6e0b99c71a4497158ef",
        "status": "completed",
        "medicationCodeableConcept": {
          "coding": {
            "system": "https://www.nlm.nih.gov/research/umls/rxnorm",
            "code": "32968",
            "display": "clopidogrel"
          }
        },
        "subject": {
          "reference": "Patient/ceba63b6dcbda783668cf3efeea1d3dd"
        },
        "effectivePeriod": {
          "start": "2014-04-01T08:17:00+00:00",
          "end": "2014-04-01T20:17:00+00:00"
        },
        "meta": {
          "lastUpdated": "2022-09-19T14:48:03Z",
          "versionId": "1"
        }
      },
      "search": {
        "mode": "match"
      }
    },
    {
      "fullUrl": "https://fhir.ggyxlz8lbozu.workload-prod-fhiraas.isccloud.io/MedicationAdministration/6267af4792212c6981f320ede3f997bd",
      "resource": {
        "resourceType": "MedicationAdministration",
        "id": "6267af4792212c6981f320ede3f997bd",
        "status": "completed",
        "medicationCodeableConcept": {
          "coding": {
            "system": "https://www.nlm.nih.gov/research/umls/rxnorm",
            "code": "32968",
            "display": "clopidogrel"
          }
        },
        "subject": {
          "reference": "Patient/ceba63b6dcbda783668cf3efeea1d3dd"
        },
        "effectivePeriod": {
          "start": "2014-04-02T08:09:00+00:00",
          "end": "2014-04-02T20:09:00+00:00"
        },
        "meta": {
          "lastUpdated": "2022-09-19T14:48:03Z",
          "versionId": "1"
        }
      },
      "search": {
        "mode": "match"
      }
    },
    {
      "fullUrl": "https://fhir.ggyxlz8lbozu.workload-prod-fhiraas.isccloud.io/MedicationAdministration/c3856a21af373d3645de77ac18725be3",
      "resource": {
        "resourceType": "MedicationAdministration",
        "id": "c3856a21af373d3645de77ac18725be3",
        "status": "completed",
        "medicationCodeableConcept": {
          "coding": {
            "system": "https://www.nlm.nih.gov/research/umls/rxnorm",
            "code": "32968",
            "display": "clopidogrel"
          }
        },
        "subject": {
          "reference": "Patient/ceba63b6dcbda783668cf3efeea1d3dd"
        },
        "effectivePeriod": {
          "start": "2014-04-03T08:14:00+00:00",
          "end": "2014-04-03T20:14:00+00:00"
        },
        "meta": {
          "lastUpdated": "2022-09-19T14:48:03Z",
          "versionId": "1"
        }
      },
      "search": {
        "mode": "match"
      }
    },
    {
      "fullUrl": "https://fhir.ggyxlz8lbozu.workload-prod-fhiraas.isccloud.io/MedicationAdministration/2a5d3fb4a9129d3760f909f327b1557d",
      "resource": {
        "resourceType": "MedicationAdministration",
        "id": "2a5d3fb4a9129d3760f909f327b1557d",
        "status": "completed",
        "medicationCodeableConcept": {
          "coding": {
            "system": "https://www.nlm.nih.gov/research/umls/rxnorm",
            "code": "32968",
            "display": "clopidogrel"
          }
        },
        "subject": {
          "reference": "Patient/ceba63b6dcbda783668cf3efeea1d3dd"
        },
        "effectivePeriod": {
          "start": "2014-04-04T08:04:00+00:00",
          "end": "2014-04-04T20:04:00+00:00"
        },
        "meta": {
          "lastUpdated": "2022-09-19T14:48:03Z",
          "versionId": "1"
        }
      },
      "search": {
        "mode": "match"
      }
    },
    {
      "fullUrl": "https://fhir.ggyxlz8lbozu.workload-prod-fhiraas.isccloud.io/MedicationAdministration/7b593ad6530f15389911017063fc6679",
      "resource": {
        "resourceType": "MedicationAdministration",
        "id": "7b593ad6530f15389911017063fc6679",
        "status": "completed",
        "medicationCodeableConcept": {
          "coding": {
            "system": "https://www.nlm.nih.gov/research/umls/rxnorm",
            "code": "32968",
            "display": "clopidogrel"
          }
        },
        "subject": {
          "reference": "Patient/ceba63b6dcbda783668cf3efeea1d3dd"
        },
        "effectivePeriod": {
          "start": "2014-04-05T08:02:00+00:00",
          "end": "2014-04-05T20:02:00+00:00"
        },
        "meta": {
          "lastUpdated": "2022-09-19T14:48:03Z",
          "versionId": "1"
        }
      },
      "search": {
        "mode": "match"
      }
    },
    {
      "fullUrl": "https://fhir.ggyxlz8lbozu.workload-prod-fhiraas.isccloud.io/MedicationAdministration/0c3063bf730c178823f9c40ad874ee9a",
      "resource": {
        "resourceType": "MedicationAdministration",
        "id": "0c3063bf730c178823f9c40ad874ee9a",
        "status": "completed",
        "medicationCodeableConcept": {
          "coding": {
            "system": "https://www.nlm.nih.gov/research/umls/rxnorm",
            "code": "32968",
            "display": "clopidogrel"
          }
        },
        "subject": {
          "reference": "Patient/ceba63b6dcbda783668cf3efeea1d3dd"
        },
        "effectivePeriod": {
          "start": "2014-04-06T08:52:00+00:00",
          "end": "2014-04-06T20:52:00+00:00"
        },
        "meta": {
          "lastUpdated": "2022-09-19T14:48:03Z",
          "versionId": "1"
        }
      },
      "search": {
        "mode": "match"
      }
    },
    {
      "fullUrl": "https://fhir.ggyxlz8lbozu.workload-prod-fhiraas.isccloud.io/MedicationAdministration/8895b17b285bb5395364d51289b06ba5",
      "resource": {
        "resourceType": "MedicationAdministration",
        "id": "8895b17b285bb5395364d51289b06ba5",
        "status": "completed",
        "medicationCodeableConcept": {
          "coding": {
            "system": "https://www.nlm.nih.gov/research/umls/rxnorm",
            "code": "32968",
            "display": "clopidogrel"
          }
        },
        "subject": {
          "reference": "Patient/ceba63b6dcbda783668cf3efeea1d3dd"
        },
        "effectivePeriod": {
          "start": "2014-04-07T08:37:00+00:00",
          "end": "2014-04-07T20:37:00+00:00"
        },
        "meta": {
          "lastUpdated": "2022-09-19T14:48:03Z",
          "versionId": "1"
        }
      },
      "search": {
        "mode": "match"
      }
    },
    {
      "fullUrl": "https://fhir.ggyxlz8lbozu.workload-prod-fhiraas.isccloud.io/MedicationAdministration/81fc69d41d2c7565516b6e4e0131d373",
      "resource": {
        "resourceType": "MedicationAdministration",
        "id": "81fc69d41d2c7565516b6e4e0131d373",
        "status": "completed",
        "medicationCodeableConcept": {
          "coding": {
            "system": "https://www.nlm.nih.gov/research/umls/rxnorm",
            "code": "32968",
            "display": "clopidogrel"
          }
        },
        "subject": {
          "reference": "Patient/ceba63b6dcbda783668cf3efeea1d3dd"
        },
        "effectivePeriod": {
          "start": "2014-04-08T08:15:00+00:00",
          "end": "2014-04-08T20:15:00+00:00"
        },
        "meta": {
          "lastUpdated": "2022-09-19T14:48:03Z",
          "versionId": "1"
        }
      },
      "search": {
        "mode": "match"
      }
    },
    {
      "fullUrl": "https://fhir.ggyxlz8lbozu.workload-prod-fhiraas.isccloud.io/MedicationAdministration/d4402cdfa724d2f582fe948de8f3856c",
      "resource": {
        "resourceType": "MedicationAdministration",
        "id": "d4402cdfa724d2f582fe948de8f3856c",
        "status": "completed",
        "medicationCodeableConcept": {
          "coding": {
            "system": "https://www.nlm.nih.gov/research/umls/rxnorm",
            "code": "32968",
            "display": "clopidogrel"
          }
        },
        "subject": {
          "reference": "Patient/ceba63b6dcbda783668cf3efeea1d3dd"
        },
        "effectivePeriod": {
          "start": "2014-04-09T09:00:00+00:00",
          "end": "2014-04-09T21:00:00+00:00"
        },
        "meta": {
          "lastUpdated": "2022-09-19T14:48:03Z",
          "versionId": "1"
        }
      },
      "search": {
        "mode": "match"
      }
    },
    {
      "fullUrl": "https://fhir.ggyxlz8lbozu.workload-prod-fhiraas.isccloud.io/MedicationAdministration/47a861578f08da694e790f4fdbeb4453",
      "resource": {
        "resourceType": "MedicationAdministration",
        "id": "47a861578f08da694e790f4fdbeb4453",
        "status": "completed",
        "medicationCodeableConcept": {
          "coding": {
            "system": "https://www.nlm.nih.gov/research/umls/rxnorm",
            "code": "32968",
            "display": "clopidogrel"
          }
        },
        "subject": {
          "reference": "Patient/ceba63b6dcbda783668cf3efeea1d3dd"
        },
        "effectivePeriod": {
          "start": "2014-04-10T08:31:00+00:00",
          "end": "2014-04-10T20:31:00+00:00"
        },
        "meta": {
          "lastUpdated": "2022-09-19T14:48:03Z",
          "versionId": "1"
        }
      },
      "search": {
        "mode": "match"
      }
    },
    {
      "fullUrl": "https://fhir.ggyxlz8lbozu.workload-prod-fhiraas.isccloud.io/MedicationAdministration/4e5fb5fd5f4f749d05ea8f679a61cf51",
      "resource": {
        "resourceType": "MedicationAdministration",
        "id": "4e5fb5fd5f4f749d05ea8f679a61cf51",
        "status": "completed",
        "medicationCodeableConcept": {
          "coding": {
            "system": "https://www.nlm.nih.gov/research/umls/rxnorm",
            "code": "32968",
            "display": "clopidogrel"
          }
        },
        "subject": {
          "reference": "Patient/ceba63b6dcbda783668cf3efeea1d3dd"
        },
        "effectivePeriod": {
          "start": "2014-04-11T08:32:00+00:00",
          "end": "2014-04-11T20:32:00+00:00"
        },
        "meta": {
          "lastUpdated": "2022-09-19T14:48:03Z",
          "versionId": "1"
        }
      },
      "search": {
        "mode": "match"
      }
    },
    {
      "fullUrl": "https://fhir.ggyxlz8lbozu.workload-prod-fhiraas.isccloud.io/MedicationAdministration/ebb53f973ede9d1f43018dfb8507e410",
      "resource": {
        "resourceType": "MedicationAdministration",
        "id": "ebb53f973ede9d1f43018dfb8507e410",
        "status": "completed",
        "medicationCodeableConcept": {
          "coding": {
            "system": "https://www.nlm.nih.gov/research/umls/rxnorm",
            "code": "32968",
            "display": "clopidogrel"
          }
        },
        "subject": {
          "reference": "Patient/ceba63b6dcbda783668cf3efeea1d3dd"
        },
        "effectivePeriod": {
          "start": "2014-04-12T08:47:00+00:00",
          "end": "2014-04-12T20:47:00+00:00"
        },
        "meta": {
          "lastUpdated": "2022-09-19T14:48:03Z",
          "versionId": "1"
        }
      },
      "search": {
        "mode": "match"
      }
    },
    {
      "fullUrl": "https://fhir.ggyxlz8lbozu.workload-prod-fhiraas.isccloud.io/MedicationAdministration/ccb38cb0e45e589135b35935f268c821",
      "resource": {
        "resourceType": "MedicationAdministration",
        "id": "ccb38cb0e45e589135b35935f268c821",
        "status": "completed",
        "medicationCodeableConcept": {
          "coding": {
            "system": "https://www.nlm.nih.gov/research/umls/rxnorm",
            "code": "32968",
            "display": "clopidogrel"
          }
        },
        "subject": {
          "reference": "Patient/ceba63b6dcbda783668cf3efeea1d3dd"
        },
        "effectivePeriod": {
          "start": "2014-04-13T08:48:00+00:00",
          "end": "2014-04-13T20:48:00+00:00"
        },
        "meta": {
          "lastUpdated": "2022-09-19T14:48:03Z",
          "versionId": "1"
        }
      },
      "search": {
        "mode": "match"
      }
    },
    {
      "fullUrl": "https://fhir.ggyxlz8lbozu.workload-prod-fhiraas.isccloud.io/MedicationAdministration/5689a4858d5f8301441dd80ffca947b9",
      "resource": {
        "resourceType": "MedicationAdministration",
        "id": "5689a4858d5f8301441dd80ffca947b9",
        "status": "completed",
        "medicationCodeableConcept": {
          "coding": {
            "system": "https://www.nlm.nih.gov/research/umls/rxnorm",
            "code": "32968",
            "display": "clopidogrel"
          }
        },
        "subject": {
          "reference": "Patient/ceba63b6dcbda783668cf3efeea1d3dd"
        },
        "effectivePeriod": {
          "start": "2014-04-14T08:48:00+00:00",
          "end": "2014-04-14T20:48:00+00:00"
        },
        "meta": {
          "lastUpdated": "2022-09-19T14:48:03Z",
          "versionId": "1"
        }
      },
      "search": {
        "mode": "match"
      }
    },
    {
      "fullUrl": "https://fhir.ggyxlz8lbozu.workload-prod-fhiraas.isccloud.io/MedicationAdministration/ea4426c51662fae863dae624cac5f1ff",
      "resource": {
        "resourceType": "MedicationAdministration",
        "id": "ea4426c51662fae863dae624cac5f1ff",
        "status": "completed",
        "medicationCodeableConcept": {
          "coding": {
            "system": "https://www.nlm.nih.gov/research/umls/rxnorm",
            "code": "32968",
            "display": "clopidogrel"
          }
        },
        "subject": {
          "reference": "Patient/ceba63b6dcbda783668cf3efeea1d3dd"
        },
        "effectivePeriod": {
          "start": "2014-04-15T08:20:00+00:00",
          "end": "2014-04-15T20:20:00+00:00"
        },
        "meta": {
          "lastUpdated": "2022-09-19T14:48:03Z",
          "versionId": "1"
        }
      },
      "search": {
        "mode": "match"
      }
    },
    {
      "fullUrl": "https://fhir.ggyxlz8lbozu.workload-prod-fhiraas.isccloud.io/MedicationAdministration/25b99945f3f9dc8a827374a100b2ab0b",
      "resource": {
        "resourceType": "MedicationAdministration",
        "id": "25b99945f3f9dc8a827374a100b2ab0b",
        "status": "completed",
        "medicationCodeableConcept": {
          "coding": {
            "system": "https://www.nlm.nih.gov/research/umls/rxnorm",
            "code": "32968",
            "display": "clopidogrel"
          }
        },
        "subject": {
          "reference": "Patient/ceba63b6dcbda783668cf3efeea1d3dd"
        },
        "effectivePeriod": {
          "start": "2014-04-16T08:49:00+00:00",
          "end": "2014-04-16T20:49:00+00:00"
        },
        "meta": {
          "lastUpdated": "2022-09-19T14:48:03Z",
          "versionId": "1"
        }
      },
      "search": {
        "mode": "match"
      }
    },
    {
      "fullUrl": "https://fhir.ggyxlz8lbozu.workload-prod-fhiraas.isccloud.io/MedicationAdministration/f0a8e7bf3b382e84324d0ac89324f868",
      "resource": {
        "resourceType": "MedicationAdministration",
        "id": "f0a8e7bf3b382e84324d0ac89324f868",
        "status": "completed",
        "medicationCodeableConcept": {
          "coding": {
            "system": "https://www.nlm.nih.gov/research/umls/rxnorm",
            "code": "32968",
            "display": "clopidogrel"
          }
        },
        "subject": {
          "reference": "Patient/ceba63b6dcbda783668cf3efeea1d3dd"
        },
        "effectivePeriod": {
          "start": "2014-04-17T08:45:00+00:00",
          "end": "2014-04-17T20:45:00+00:00"
        },
        "meta": {
          "lastUpdated": "2022-09-19T14:48:03Z",
          "versionId": "1"
        }
      },
      "search": {
        "mode": "match"
      }
    },
    {
      "fullUrl": "https://fhir.ggyxlz8lbozu.workload-prod-fhiraas.isccloud.io/MedicationAdministration/81262ca22b617fb501ad427657995cd0",
      "resource": {
        "resourceType": "MedicationAdministration",
        "id": "81262ca22b617fb501ad427657995cd0",
        "status": "completed",
        "medicationCodeableConcept": {
          "coding": {
            "system": "https://www.nlm.nih.gov/research/umls/rxnorm",
            "code": "32968",
            "display": "clopidogrel"
          }
        },
        "subject": {
          "reference": "Patient/ceba63b6dcbda783668cf3efeea1d3dd"
        },
        "effectivePeriod": {
          "start": "2014-04-18T08:55:00+00:00",
          "end": "2014-04-18T20:55:00+00:00"
        },
        "meta": {
          "lastUpdated": "2022-09-19T14:48:03Z",
          "versionId": "1"
        }
      },
      "search": {
        "mode": "match"
      }
    },
    {
      "fullUrl": "https://fhir.ggyxlz8lbozu.workload-prod-fhiraas.isccloud.io/MedicationAdministration/00c2eabce68fcc2f53adfb6bf6266528",
      "resource": {
        "resourceType": "MedicationAdministration",
        "id": "00c2eabce68fcc2f53adfb6bf6266528",
        "status": "completed",
        "medicationCodeableConcept": {
          "coding": {
            "system": "https://www.nlm.nih.gov/research/umls/rxnorm",
            "code": "32968",
            "display": "clopidogrel"
          }
        },
        "subject": {
          "reference": "Patient/ceba63b6dcbda783668cf3efeea1d3dd"
        },
        "effectivePeriod": {
          "start": "2014-04-19T08:08:00+00:00",
          "end": "2014-04-19T20:08:00+00:00"
        },
        "meta": {
          "lastUpdated": "2022-09-19T14:48:03Z",
          "versionId": "1"
        }
      },
      "search": {
        "mode": "match"
      }
    },
    {
      "fullUrl": "https://fhir.ggyxlz8lbozu.workload-prod-fhiraas.isccloud.io/MedicationAdministration/57120687d901ac2df54221961ba1cd5f",
      "resource": {
        "resourceType": "MedicationAdministration",
        "id": "57120687d901ac2df54221961ba1cd5f",
        "status": "completed",
        "medicationCodeableConcept": {
          "coding": {
            "system": "https://www.nlm.nih.gov/research/umls/rxnorm",
            "code": "32968",
            "display": "clopidogrel"
          }
        },
        "subject": {
          "reference": "Patient/ceba63b6dcbda783668cf3efeea1d3dd"
        },
        "effectivePeriod": {
          "start": "2014-04-20T08:50:00+00:00",
          "end": "2014-04-20T20:50:00+00:00"
        },
        "meta": {
          "lastUpdated": "2022-09-19T14:48:03Z",
          "versionId": "1"
        }
      },
      "search": {
        "mode": "match"
      }
    },
    {
      "fullUrl": "https://fhir.ggyxlz8lbozu.workload-prod-fhiraas.isccloud.io/MedicationAdministration/574ac0d6bf445d256ae1d4c042e5156e",
      "resource": {
        "resourceType": "MedicationAdministration",
        "id": "574ac0d6bf445d256ae1d4c042e5156e",
        "status": "completed",
        "medicationCodeableConcept": {
          "coding": {
            "system": "https://www.nlm.nih.gov/research/umls/rxnorm",
            "code": "32968",
            "display": "clopidogrel"
          }
        },
        "subject": {
          "reference": "Patient/ceba63b6dcbda783668cf3efeea1d3dd"
        },
        "effectivePeriod": {
          "start": "2014-04-21T08:03:00+00:00",
          "end": "2014-04-21T20:03:00+00:00"
        },
        "meta": {
          "lastUpdated": "2022-09-19T14:48:03Z",
          "versionId": "1"
        }
      },
      "search": {
        "mode": "match"
      }
    },
    {
      "fullUrl": "https://fhir.ggyxlz8lbozu.workload-prod-fhiraas.isccloud.io/MedicationAdministration/0aa855f047abb15b5869454ad860519e",
      "resource": {
        "resourceType": "MedicationAdministration",
        "id": "0aa855f047abb15b5869454ad860519e",
        "status": "completed",
        "medicationCodeableConcept": {
          "coding": {
            "system": "https://www.nlm.nih.gov/research/umls/rxnorm",
            "code": "32968",
            "display": "clopidogrel"
          }
        },
        "subject": {
          "reference": "Patient/ceba63b6dcbda783668cf3efeea1d3dd"
        },
        "effectivePeriod": {
          "start": "2014-04-22T08:52:00+00:00",
          "end": "2014-04-22T20:52:00+00:00"
        },
        "meta": {
          "lastUpdated": "2022-09-19T14:48:03Z",
          "versionId": "1"
        }
      },
      "search": {
        "mode": "match"
      }
    },
    {
      "fullUrl": "https://fhir.ggyxlz8lbozu.workload-prod-fhiraas.isccloud.io/MedicationAdministration/fb7be5124753dd67b88b1ae1cacaf3b0",
      "resource": {
        "resourceType": "MedicationAdministration",
        "id": "fb7be5124753dd67b88b1ae1cacaf3b0",
        "status": "completed",
        "medicationCodeableConcept": {
          "coding": {
            "system": "https://www.nlm.nih.gov/research/umls/rxnorm",
            "code": "32968",
            "display": "clopidogrel"
          }
        },
        "subject": {
          "reference": "Patient/ceba63b6dcbda783668cf3efeea1d3dd"
        },
        "effectivePeriod": {
          "start": "2014-04-23T08:22:00+00:00",
          "end": "2014-04-23T20:22:00+00:00"
        },
        "meta": {
          "lastUpdated": "2022-09-19T14:48:03Z",
          "versionId": "1"
        }
      },
      "search": {
        "mode": "match"
      }
    },
    {
      "fullUrl": "https://fhir.ggyxlz8lbozu.workload-prod-fhiraas.isccloud.io/MedicationAdministration/c41877001b360105314fa0971a421330",
      "resource": {
        "resourceType": "MedicationAdministration",
        "id": "c41877001b360105314fa0971a421330",
        "status": "completed",
        "medicationCodeableConcept": {
          "coding": {
            "system": "https://www.nlm.nih.gov/research/umls/rxnorm",
            "code": "32968",
            "display": "clopidogrel"
          }
        },
        "subject": {
          "reference": "Patient/ceba63b6dcbda783668cf3efeea1d3dd"
        },
        "effectivePeriod": {
          "start": "2014-04-24T08:59:00+00:00",
          "end": "2014-04-24T20:59:00+00:00"
        },
        "meta": {
          "lastUpdated": "2022-09-19T14:48:03Z",
          "versionId": "1"
        }
      },
      "search": {
        "mode": "match"
      }
    },
    {
      "fullUrl": "https://fhir.ggyxlz8lbozu.workload-prod-fhiraas.isccloud.io/MedicationAdministration/298bfe40c4d24c9b91f4912e09195bb9",
      "resource": {
        "resourceType": "MedicationAdministration",
        "id": "298bfe40c4d24c9b91f4912e09195bb9",
        "status": "completed",
        "medicationCodeableConcept": {
          "coding": {
            "system": "https://www.nlm.nih.gov/research/umls/rxnorm",
            "code": "32968",
            "display": "clopidogrel"
          }
        },
        "subject": {
          "reference": "Patient/ceba63b6dcbda783668cf3efeea1d3dd"
        },
        "effectivePeriod": {
          "start": "2014-04-25T08:03:00+00:00",
          "end": "2014-04-25T20:03:00+00:00"
        },
        "meta": {
          "lastUpdated": "2022-09-19T14:48:03Z",
          "versionId": "1"
        }
      },
      "search": {
        "mode": "match"
      }
    },
    {
      "fullUrl": "https://fhir.ggyxlz8lbozu.workload-prod-fhiraas.isccloud.io/MedicationAdministration/2c3e0d30c6a6012b91c272729cc7f43b",
      "resource": {
        "resourceType": "MedicationAdministration",
        "id": "2c3e0d30c6a6012b91c272729cc7f43b",
        "status": "completed",
        "medicationCodeableConcept": {
          "coding": {
            "system": "https://www.nlm.nih.gov/research/umls/rxnorm",
            "code": "32968",
            "display": "clopidogrel"
          }
        },
        "subject": {
          "reference": "Patient/ceba63b6dcbda783668cf3efeea1d3dd"
        },
        "effectivePeriod": {
          "start": "2014-04-26T08:08:00+00:00",
          "end": "2014-04-26T20:08:00+00:00"
        },
        "meta": {
          "lastUpdated": "2022-09-19T14:48:03Z",
          "versionId": "1"
        }
      },
      "search": {
        "mode": "match"
      }
    },
    {
      "fullUrl": "https://fhir.ggyxlz8lbozu.workload-prod-fhiraas.isccloud.io/MedicationAdministration/a3bd5933697ffa13628846d06a700548",
      "resource": {
        "resourceType": "MedicationAdministration",
        "id": "a3bd5933697ffa13628846d06a700548",
        "status": "completed",
        "medicationCodeableConcept": {
          "coding": {
            "system": "https://www.nlm.nih.gov/research/umls/rxnorm",
            "code": "32968",
            "display": "clopidogrel"
          }
        },
        "subject": {
          "reference": "Patient/ceba63b6dcbda783668cf3efeea1d3dd"
        },
        "effectivePeriod": {
          "start": "2014-04-27T08:56:00+00:00",
          "end": "2014-04-27T20:56:00+00:00"
        },
        "meta": {
          "lastUpdated": "2022-09-19T14:48:03Z",
          "versionId": "1"
        }
      },
      "search": {
        "mode": "match"
      }
    },
    {
      "fullUrl": "https://fhir.ggyxlz8lbozu.workload-prod-fhiraas.isccloud.io/MedicationAdministration/acdd98d1af3799ab6751c1ed96423f38",
      "resource": {
        "resourceType": "MedicationAdministration",
        "id": "acdd98d1af3799ab6751c1ed96423f38",
        "status": "completed",
        "medicationCodeableConcept": {
          "coding": {
            "system": "https://www.nlm.nih.gov/research/umls/rxnorm",
            "code": "32968",
            "display": "clopidogrel"
          }
        },
        "subject": {
          "reference": "Patient/ceba63b6dcbda783668cf3efeea1d3dd"
        },
        "effectivePeriod": {
          "start": "2014-04-28T08:25:00+00:00",
          "end": "2014-04-28T20:25:00+00:00"
        },
        "meta": {
          "lastUpdated": "2022-09-19T14:48:03Z",
          "versionId": "1"
        }
      },
      "search": {
        "mode": "match"
      }
    },
    {
      "fullUrl": "https://fhir.ggyxlz8lbozu.workload-prod-fhiraas.isccloud.io/MedicationAdministration/6fdc11482e0c73117b447f708d77994c",
      "resource": {
        "resourceType": "MedicationAdministration",
        "id": "6fdc11482e0c73117b447f708d77994c",
        "status": "completed",
        "medicationCodeableConcept": {
          "coding": {
            "system": "https://www.nlm.nih.gov/research/umls/rxnorm",
            "code": "32968",
            "display": "clopidogrel"
          }
        },
        "subject": {
          "reference": "Patient/ceba63b6dcbda783668cf3efeea1d3dd"
        },
        "effectivePeriod": {
          "start": "2014-04-29T08:11:00+00:00",
          "end": "2014-04-29T20:11:00+00:00"
        },
        "meta": {
          "lastUpdated": "2022-09-19T14:48:03Z",
          "versionId": "1"
        }
      },
      "search": {
        "mode": "match"
      }
    },
    {
      "fullUrl": "https://fhir.ggyxlz8lbozu.workload-prod-fhiraas.isccloud.io/MedicationAdministration/faa2208f48885ff64d8c35ff10d7b9e1",
      "resource": {
        "resourceType": "MedicationAdministration",
        "id": "faa2208f48885ff64d8c35ff10d7b9e1",
        "status": "completed",
        "medicationCodeableConcept": {
          "coding": {
            "system": "https://www.nlm.nih.gov/research/umls/rxnorm",
            "code": "32968",
            "display": "clopidogrel"
          }
        },
        "subject": {
          "reference": "Patient/ceba63b6dcbda783668cf3efeea1d3dd"
        },
        "effectivePeriod": {
          "start": "2014-04-30T08:08:00+00:00",
          "end": "2014-04-30T20:08:00+00:00"
        },
        "meta": {
          "lastUpdated": "2022-09-19T14:48:03Z",
          "versionId": "1"
        }
      },
      "search": {
        "mode": "match"
      }
    },
    {
      "fullUrl": "https://fhir.ggyxlz8lbozu.workload-prod-fhiraas.isccloud.io/MedicationAdministration/548c66b4e819cd00b0814e773ace7682",
      "resource": {
        "resourceType": "MedicationAdministration",
        "id": "548c66b4e819cd00b0814e773ace7682",
        "status": "completed",
        "medicationCodeableConcept": {
          "coding": {
            "system": "https://www.nlm.nih.gov/research/umls/rxnorm",
            "code": "32968",
            "display": "clopidogrel"
          }
        },
        "subject": {
          "reference": "Patient/ceba63b6dcbda783668cf3efeea1d3dd"
        },
        "effectivePeriod": {
          "start": "2014-05-01T08:36:00+00:00",
          "end": "2014-05-01T20:36:00+00:00"
        },
        "meta": {
          "lastUpdated": "2022-09-19T14:48:03Z",
          "versionId": "1"
        }
      },
      "search": {
        "mode": "match"
      }
    },
    {
      "fullUrl": "https://fhir.ggyxlz8lbozu.workload-prod-fhiraas.isccloud.io/MedicationAdministration/6daa886921cf6b51792adcb7506253a1",
      "resource": {
        "resourceType": "MedicationAdministration",
        "id": "6daa886921cf6b51792adcb7506253a1",
        "status": "completed",
        "medicationCodeableConcept": {
          "coding": {
            "system": "https://www.nlm.nih.gov/research/umls/rxnorm",
            "code": "32968",
            "display": "clopidogrel"
          }
        },
        "subject": {
          "reference": "Patient/ceba63b6dcbda783668cf3efeea1d3dd"
        },
        "effectivePeriod": {
          "start": "2014-05-02T08:12:00+00:00",
          "end": "2014-05-02T20:12:00+00:00"
        },
        "meta": {
          "lastUpdated": "2022-09-19T14:48:03Z",
          "versionId": "1"
        }
      },
      "search": {
        "mode": "match"
      }
    },
    {
      "fullUrl": "https://fhir.ggyxlz8lbozu.workload-prod-fhiraas.isccloud.io/MedicationAdministration/dd407b164de95e4a68f2e1c79371d62f",
      "resource": {
        "resourceType": "MedicationAdministration",
        "id": "dd407b164de95e4a68f2e1c79371d62f",
        "status": "completed",
        "medicationCodeableConcept": {
          "coding": {
            "system": "https://www.nlm.nih.gov/research/umls/rxnorm",
            "code": "32968",
            "display": "clopidogrel"
          }
        },
        "subject": {
          "reference": "Patient/ceba63b6dcbda783668cf3efeea1d3dd"
        },
        "effectivePeriod": {
          "start": "2014-05-03T08:47:00+00:00",
          "end": "2014-05-03T20:47:00+00:00"
        },
        "meta": {
          "lastUpdated": "2022-09-19T14:48:03Z",
          "versionId": "1"
        }
      },
      "search": {
        "mode": "match"
      }
    },
    {
      "fullUrl": "https://fhir.ggyxlz8lbozu.workload-prod-fhiraas.isccloud.io/MedicationAdministration/3153f6fa25110876a917080518bf42ed",
      "resource": {
        "resourceType": "MedicationAdministration",
        "id": "3153f6fa25110876a917080518bf42ed",
        "status": "completed",
        "medicationCodeableConcept": {
          "coding": {
            "system": "https://www.nlm.nih.gov/research/umls/rxnorm",
            "code": "32968",
            "display": "clopidogrel"
          }
        },
        "subject": {
          "reference": "Patient/ceba63b6dcbda783668cf3efeea1d3dd"
        },
        "effectivePeriod": {
          "start": "2014-05-04T08:10:00+00:00",
          "end": "2014-05-04T20:10:00+00:00"
        },
        "meta": {
          "lastUpdated": "2022-09-19T14:48:03Z",
          "versionId": "1"
        }
      },
      "search": {
        "mode": "match"
      }
    },
    {
      "fullUrl": "https://fhir.ggyxlz8lbozu.workload-prod-fhiraas.isccloud.io/MedicationAdministration/937080baf1443d0750459409fc9b204b",
      "resource": {
        "resourceType": "MedicationAdministration",
        "id": "937080baf1443d0750459409fc9b204b",
        "status": "completed",
        "medicationCodeableConcept": {
          "coding": {
            "system": "https://www.nlm.nih.gov/research/umls/rxnorm",
            "code": "32968",
            "display": "clopidogrel"
          }
        },
        "subject": {
          "reference": "Patient/ceba63b6dcbda783668cf3efeea1d3dd"
        },
        "effectivePeriod": {
          "start": "2014-05-05T08:14:00+00:00",
          "end": "2014-05-05T20:14:00+00:00"
        },
        "meta": {
          "lastUpdated": "2022-09-19T14:48:03Z",
          "versionId": "1"
        }
      },
      "search": {
        "mode": "match"
      }
    },
    {
      "fullUrl": "https://fhir.ggyxlz8lbozu.workload-prod-fhiraas.isccloud.io/MedicationAdministration/d6962340c501bd636463cfc20b4dccec",
      "resource": {
        "resourceType": "MedicationAdministration",
        "id": "d6962340c501bd636463cfc20b4dccec",
        "status": "completed",
        "medicationCodeableConcept": {
          "coding": {
            "system": "https://www.nlm.nih.gov/research/umls/rxnorm",
            "code": "32968",
            "display": "clopidogrel"
          }
        },
        "subject": {
          "reference": "Patient/ceba63b6dcbda783668cf3efeea1d3dd"
        },
        "effectivePeriod": {
          "start": "2014-05-06T08:50:00+00:00",
          "end": "2014-05-06T20:50:00+00:00"
        },
        "meta": {
          "lastUpdated": "2022-09-19T14:48:03Z",
          "versionId": "1"
        }
      },
      "search": {
        "mode": "match"
      }
    },
    {
      "fullUrl": "https://fhir.ggyxlz8lbozu.workload-prod-fhiraas.isccloud.io/MedicationAdministration/ba3f0349c3b2912e563021f0cbdf597f",
      "resource": {
        "resourceType": "MedicationAdministration",
        "id": "ba3f0349c3b2912e563021f0cbdf597f",
        "status": "completed",
        "medicationCodeableConcept": {
          "coding": {
            "system": "https://www.nlm.nih.gov/research/umls/rxnorm",
            "code": "32968",
            "display": "clopidogrel"
          }
        },
        "subject": {
          "reference": "Patient/ceba63b6dcbda783668cf3efeea1d3dd"
        },
        "effectivePeriod": {
          "start": "2014-05-07T08:37:00+00:00",
          "end": "2014-05-07T20:37:00+00:00"
        },
        "meta": {
          "lastUpdated": "2022-09-19T14:48:03Z",
          "versionId": "1"
        }
      },
      "search": {
        "mode": "match"
      }
    },
    {
      "fullUrl": "https://fhir.ggyxlz8lbozu.workload-prod-fhiraas.isccloud.io/MedicationAdministration/2fc9e15333d971543db758ff458b3638",
      "resource": {
        "resourceType": "MedicationAdministration",
        "id": "2fc9e15333d971543db758ff458b3638",
        "status": "completed",
        "medicationCodeableConcept": {
          "coding": {
            "system": "https://www.nlm.nih.gov/research/umls/rxnorm",
            "code": "32968",
            "display": "clopidogrel"
          }
        },
        "subject": {
          "reference": "Patient/ceba63b6dcbda783668cf3efeea1d3dd"
        },
        "effectivePeriod": {
          "start": "2014-05-08T08:06:00+00:00",
          "end": "2014-05-08T20:06:00+00:00"
        },
        "meta": {
          "lastUpdated": "2022-09-19T14:48:03Z",
          "versionId": "1"
        }
      },
      "search": {
        "mode": "match"
      }
    },
    {
      "fullUrl": "https://fhir.ggyxlz8lbozu.workload-prod-fhiraas.isccloud.io/MedicationAdministration/988e40b1ceffc8fdab3f54583f2cafeb",
      "resource": {
        "resourceType": "MedicationAdministration",
        "id": "988e40b1ceffc8fdab3f54583f2cafeb",
        "status": "completed",
        "medicationCodeableConcept": {
          "coding": {
            "system": "https://www.nlm.nih.gov/research/umls/rxnorm",
            "code": "32968",
            "display": "clopidogrel"
          }
        },
        "subject": {
          "reference": "Patient/ceba63b6dcbda783668cf3efeea1d3dd"
        },
        "effectivePeriod": {
          "start": "2014-05-09T08:01:00+00:00",
          "end": "2014-05-09T20:01:00+00:00"
        },
        "meta": {
          "lastUpdated": "2022-09-19T14:48:03Z",
          "versionId": "1"
        }
      },
      "search": {
        "mode": "match"
      }
    },
    {
      "fullUrl": "https://fhir.ggyxlz8lbozu.workload-prod-fhiraas.isccloud.io/MedicationAdministration/01f4d6fd3caefdca5c28fd74be3aa876",
      "resource": {
        "resourceType": "MedicationAdministration",
        "id": "01f4d6fd3caefdca5c28fd74be3aa876",
        "status": "completed",
        "medicationCodeableConcept": {
          "coding": {
            "system": "https://www.nlm.nih.gov/research/umls/rxnorm",
            "code": "32968",
            "display": "clopidogrel"
          }
        },
        "subject": {
          "reference": "Patient/ceba63b6dcbda783668cf3efeea1d3dd"
        },
        "effectivePeriod": {
          "start": "2014-05-10T08:25:00+00:00",
          "end": "2014-05-10T20:25:00+00:00"
        },
        "meta": {
          "lastUpdated": "2022-09-19T14:48:03Z",
          "versionId": "1"
        }
      },
      "search": {
        "mode": "match"
      }
    },
    {
      "fullUrl": "https://fhir.ggyxlz8lbozu.workload-prod-fhiraas.isccloud.io/MedicationAdministration/56cf2882e1bbc1fac5d874905ccf4484",
      "resource": {
        "resourceType": "MedicationAdministration",
        "id": "56cf2882e1bbc1fac5d874905ccf4484",
        "status": "completed",
        "medicationCodeableConcept": {
          "coding": {
            "system": "https://www.nlm.nih.gov/research/umls/rxnorm",
            "code": "32968",
            "display": "clopidogrel"
          }
        },
        "subject": {
          "reference": "Patient/ceba63b6dcbda783668cf3efeea1d3dd"
        },
        "effectivePeriod": {
          "start": "2014-05-11T08:19:00+00:00",
          "end": "2014-05-11T20:19:00+00:00"
        },
        "meta": {
          "lastUpdated": "2022-09-19T14:48:03Z",
          "versionId": "1"
        }
      },
      "search": {
        "mode": "match"
      }
    },
    {
      "fullUrl": "https://fhir.ggyxlz8lbozu.workload-prod-fhiraas.isccloud.io/MedicationAdministration/b797cce30bf4a938e362ccd1aba88bb1",
      "resource": {
        "resourceType": "MedicationAdministration",
        "id": "b797cce30bf4a938e362ccd1aba88bb1",
        "status": "completed",
        "medicationCodeableConcept": {
          "coding": {
            "system": "https://www.nlm.nih.gov/research/umls/rxnorm",
            "code": "32968",
            "display": "clopidogrel"
          }
        },
        "subject": {
          "reference": "Patient/ceba63b6dcbda783668cf3efeea1d3dd"
        },
        "effectivePeriod": {
          "start": "2014-05-12T08:54:00+00:00",
          "end": "2014-05-12T20:54:00+00:00"
        },
        "meta": {
          "lastUpdated": "2022-09-19T14:48:03Z",
          "versionId": "1"
        }
      },
      "search": {
        "mode": "match"
      }
    },
    {
      "fullUrl": "https://fhir.ggyxlz8lbozu.workload-prod-fhiraas.isccloud.io/MedicationAdministration/55ec6b2546731055fb08ba3861d77f15",
      "resource": {
        "resourceType": "MedicationAdministration",
        "id": "55ec6b2546731055fb08ba3861d77f15",
        "status": "completed",
        "medicationCodeableConcept": {
          "coding": {
            "system": "https://www.nlm.nih.gov/research/umls/rxnorm",
            "code": "32968",
            "display": "clopidogrel"
          }
        },
        "subject": {
          "reference": "Patient/ceba63b6dcbda783668cf3efeea1d3dd"
        },
        "effectivePeriod": {
          "start": "2014-05-13T08:48:00+00:00",
          "end": "2014-05-13T20:48:00+00:00"
        },
        "meta": {
          "lastUpdated": "2022-09-19T14:48:03Z",
          "versionId": "1"
        }
      },
      "search": {
        "mode": "match"
      }
    },
    {
      "fullUrl": "https://fhir.ggyxlz8lbozu.workload-prod-fhiraas.isccloud.io/MedicationAdministration/6100c41bffde4eb9f9144325f708c01e",
      "resource": {
        "resourceType": "MedicationAdministration",
        "id": "6100c41bffde4eb9f9144325f708c01e",
        "status": "completed",
        "medicationCodeableConcept": {
          "coding": {
            "system": "https://www.nlm.nih.gov/research/umls/rxnorm",
            "code": "32968",
            "display": "clopidogrel"
          }
        },
        "subject": {
          "reference": "Patient/ceba63b6dcbda783668cf3efeea1d3dd"
        },
        "effectivePeriod": {
          "start": "2014-05-14T08:17:00+00:00",
          "end": "2014-05-14T20:17:00+00:00"
        },
        "meta": {
          "lastUpdated": "2022-09-19T14:48:03Z",
          "versionId": "1"
        }
      },
      "search": {
        "mode": "match"
      }
    },
    {
      "fullUrl": "https://fhir.ggyxlz8lbozu.workload-prod-fhiraas.isccloud.io/MedicationAdministration/f48752850a1c18ecd5634fc24fa6dd13",
      "resource": {
        "resourceType": "MedicationAdministration",
        "id": "f48752850a1c18ecd5634fc24fa6dd13",
        "status": "completed",
        "medicationCodeableConcept": {
          "coding": {
            "system": "https://www.nlm.nih.gov/research/umls/rxnorm",
            "code": "32968",
            "display": "clopidogrel"
          }
        },
        "subject": {
          "reference": "Patient/ceba63b6dcbda783668cf3efeea1d3dd"
        },
        "effectivePeriod": {
          "start": "2014-05-15T08:08:00+00:00",
          "end": "2014-05-15T20:08:00+00:00"
        },
        "meta": {
          "lastUpdated": "2022-09-19T14:48:03Z",
          "versionId": "1"
        }
      },
      "search": {
        "mode": "match"
      }
    },
    {
      "fullUrl": "https://fhir.ggyxlz8lbozu.workload-prod-fhiraas.isccloud.io/MedicationAdministration/bf6958c65aed6ee21de77a2f11e4189b",
      "resource": {
        "resourceType": "MedicationAdministration",
        "id": "bf6958c65aed6ee21de77a2f11e4189b",
        "status": "completed",
        "medicationCodeableConcept": {
          "coding": {
            "system": "https://www.nlm.nih.gov/research/umls/rxnorm",
            "code": "32968",
            "display": "clopidogrel"
          }
        },
        "subject": {
          "reference": "Patient/ceba63b6dcbda783668cf3efeea1d3dd"
        },
        "effectivePeriod": {
          "start": "2014-05-16T08:32:00+00:00",
          "end": "2014-05-16T20:32:00+00:00"
        },
        "meta": {
          "lastUpdated": "2022-09-19T14:48:03Z",
          "versionId": "1"
        }
      },
      "search": {
        "mode": "match"
      }
    },
    {
      "fullUrl": "https://fhir.ggyxlz8lbozu.workload-prod-fhiraas.isccloud.io/MedicationAdministration/a933e12921699165c5cf39d61748f25f",
      "resource": {
        "resourceType": "MedicationAdministration",
        "id": "a933e12921699165c5cf39d61748f25f",
        "status": "completed",
        "medicationCodeableConcept": {
          "coding": {
            "system": "https://www.nlm.nih.gov/research/umls/rxnorm",
            "code": "32968",
            "display": "clopidogrel"
          }
        },
        "subject": {
          "reference": "Patient/ceba63b6dcbda783668cf3efeea1d3dd"
        },
        "effectivePeriod": {
          "start": "2014-05-17T08:25:00+00:00",
          "end": "2014-05-17T20:25:00+00:00"
        },
        "meta": {
          "lastUpdated": "2022-09-19T14:48:03Z",
          "versionId": "1"
        }
      },
      "search": {
        "mode": "match"
      }
    },
    {
      "fullUrl": "https://fhir.ggyxlz8lbozu.workload-prod-fhiraas.isccloud.io/MedicationAdministration/ad6652da387c7381b44e8ba3efcf798d",
      "resource": {
        "resourceType": "MedicationAdministration",
        "id": "ad6652da387c7381b44e8ba3efcf798d",
        "status": "completed",
        "medicationCodeableConcept": {
          "coding": {
            "system": "https://www.nlm.nih.gov/research/umls/rxnorm",
            "code": "32968",
            "display": "clopidogrel"
          }
        },
        "subject": {
          "reference": "Patient/ceba63b6dcbda783668cf3efeea1d3dd"
        },
        "effectivePeriod": {
          "start": "2014-05-18T08:55:00+00:00",
          "end": "2014-05-18T20:55:00+00:00"
        },
        "meta": {
          "lastUpdated": "2022-09-19T14:48:03Z",
          "versionId": "1"
        }
      },
      "search": {
        "mode": "match"
      }
    },
    {
      "fullUrl": "https://fhir.ggyxlz8lbozu.workload-prod-fhiraas.isccloud.io/MedicationAdministration/0aad81e7c2cc4dd7eb6c1917abc4f64e",
      "resource": {
        "resourceType": "MedicationAdministration",
        "id": "0aad81e7c2cc4dd7eb6c1917abc4f64e",
        "status": "completed",
        "medicationCodeableConcept": {
          "coding": {
            "system": "https://www.nlm.nih.gov/research/umls/rxnorm",
            "code": "32968",
            "display": "clopidogrel"
          }
        },
        "subject": {
          "reference": "Patient/ceba63b6dcbda783668cf3efeea1d3dd"
        },
        "effectivePeriod": {
          "start": "2014-05-19T08:04:00+00:00",
          "end": "2014-05-19T20:04:00+00:00"
        },
        "meta": {
          "lastUpdated": "2022-09-19T14:48:03Z",
          "versionId": "1"
        }
      },
      "search": {
        "mode": "match"
      }
    },
    {
      "fullUrl": "https://fhir.ggyxlz8lbozu.workload-prod-fhiraas.isccloud.io/MedicationAdministration/653bb1894b4993e88aaf03625c436261",
      "resource": {
        "resourceType": "MedicationAdministration",
        "id": "653bb1894b4993e88aaf03625c436261",
        "status": "completed",
        "medicationCodeableConcept": {
          "coding": {
            "system": "https://www.nlm.nih.gov/research/umls/rxnorm",
            "code": "32968",
            "display": "clopidogrel"
          }
        },
        "subject": {
          "reference": "Patient/ceba63b6dcbda783668cf3efeea1d3dd"
        },
        "effectivePeriod": {
          "start": "2014-05-20T08:43:00+00:00",
          "end": "2014-05-20T20:43:00+00:00"
        },
        "meta": {
          "lastUpdated": "2022-09-19T14:48:03Z",
          "versionId": "1"
        }
      },
      "search": {
        "mode": "match"
      }
    },
    {
      "fullUrl": "https://fhir.ggyxlz8lbozu.workload-prod-fhiraas.isccloud.io/MedicationAdministration/d4636963c0e86286c137078d91c8f86d",
      "resource": {
        "resourceType": "MedicationAdministration",
        "id": "d4636963c0e86286c137078d91c8f86d",
        "status": "completed",
        "medicationCodeableConcept": {
          "coding": {
            "system": "https://www.nlm.nih.gov/research/umls/rxnorm",
            "code": "32968",
            "display": "clopidogrel"
          }
        },
        "subject": {
          "reference": "Patient/ceba63b6dcbda783668cf3efeea1d3dd"
        },
        "effectivePeriod": {
          "start": "2014-05-21T08:20:00+00:00",
          "end": "2014-05-21T20:20:00+00:00"
        },
        "meta": {
          "lastUpdated": "2022-09-19T14:48:03Z",
          "versionId": "1"
        }
      },
      "search": {
        "mode": "match"
      }
    },
    {
      "fullUrl": "https://fhir.ggyxlz8lbozu.workload-prod-fhiraas.isccloud.io/MedicationAdministration/127763e99331fdc4de0f39d833dfc841",
      "resource": {
        "resourceType": "MedicationAdministration",
        "id": "127763e99331fdc4de0f39d833dfc841",
        "status": "completed",
        "medicationCodeableConcept": {
          "coding": {
            "system": "https://www.nlm.nih.gov/research/umls/rxnorm",
            "code": "32968",
            "display": "clopidogrel"
          }
        },
        "subject": {
          "reference": "Patient/ceba63b6dcbda783668cf3efeea1d3dd"
        },
        "effectivePeriod": {
          "start": "2014-05-22T08:36:00+00:00",
          "end": "2014-05-22T20:36:00+00:00"
        },
        "meta": {
          "lastUpdated": "2022-09-19T14:48:03Z",
          "versionId": "1"
        }
      },
      "search": {
        "mode": "match"
      }
    },
    {
      "fullUrl": "https://fhir.ggyxlz8lbozu.workload-prod-fhiraas.isccloud.io/MedicationAdministration/5a8e12d9d7adad2ee12b04e93723bae6",
      "resource": {
        "resourceType": "MedicationAdministration",
        "id": "5a8e12d9d7adad2ee12b04e93723bae6",
        "status": "completed",
        "medicationCodeableConcept": {
          "coding": {
            "system": "https://www.nlm.nih.gov/research/umls/rxnorm",
            "code": "32968",
            "display": "clopidogrel"
          }
        },
        "subject": {
          "reference": "Patient/ceba63b6dcbda783668cf3efeea1d3dd"
        },
        "effectivePeriod": {
          "start": "2014-05-23T08:18:00+00:00",
          "end": "2014-05-23T20:18:00+00:00"
        },
        "meta": {
          "lastUpdated": "2022-09-19T14:48:03Z",
          "versionId": "1"
        }
      },
      "search": {
        "mode": "match"
      }
    },
    {
      "fullUrl": "https://fhir.ggyxlz8lbozu.workload-prod-fhiraas.isccloud.io/MedicationAdministration/ae8d1e4092b18ce8ac9f9fed9f48e6ae",
      "resource": {
        "resourceType": "MedicationAdministration",
        "id": "ae8d1e4092b18ce8ac9f9fed9f48e6ae",
        "status": "completed",
        "medicationCodeableConcept": {
          "coding": {
            "system": "https://www.nlm.nih.gov/research/umls/rxnorm",
            "code": "32968",
            "display": "clopidogrel"
          }
        },
        "subject": {
          "reference": "Patient/ceba63b6dcbda783668cf3efeea1d3dd"
        },
        "effectivePeriod": {
          "start": "2014-05-24T08:10:00+00:00",
          "end": "2014-05-24T20:10:00+00:00"
        },
        "meta": {
          "lastUpdated": "2022-09-19T14:48:03Z",
          "versionId": "1"
        }
      },
      "search": {
        "mode": "match"
      }
    },
    {
      "fullUrl": "https://fhir.ggyxlz8lbozu.workload-prod-fhiraas.isccloud.io/MedicationAdministration/a68295e990bd006c58108b43cc1db1a5",
      "resource": {
        "resourceType": "MedicationAdministration",
        "id": "a68295e990bd006c58108b43cc1db1a5",
        "status": "completed",
        "medicationCodeableConcept": {
          "coding": {
            "system": "https://www.nlm.nih.gov/research/umls/rxnorm",
            "code": "32968",
            "display": "clopidogrel"
          }
        },
        "subject": {
          "reference": "Patient/ceba63b6dcbda783668cf3efeea1d3dd"
        },
        "effectivePeriod": {
          "start": "2014-05-25T08:36:00+00:00",
          "end": "2014-05-25T20:36:00+00:00"
        },
        "meta": {
          "lastUpdated": "2022-09-19T14:48:03Z",
          "versionId": "1"
        }
      },
      "search": {
        "mode": "match"
      }
    },
    {
      "fullUrl": "https://fhir.ggyxlz8lbozu.workload-prod-fhiraas.isccloud.io/MedicationAdministration/6949b6232759e6be8c0bc9cee5fc13a0",
      "resource": {
        "resourceType": "MedicationAdministration",
        "id": "6949b6232759e6be8c0bc9cee5fc13a0",
        "status": "completed",
        "medicationCodeableConcept": {
          "coding": {
            "system": "https://www.nlm.nih.gov/research/umls/rxnorm",
            "code": "32968",
            "display": "clopidogrel"
          }
        },
        "subject": {
          "reference": "Patient/ceba63b6dcbda783668cf3efeea1d3dd"
        },
        "effectivePeriod": {
          "start": "2014-05-26T08:59:00+00:00",
          "end": "2014-05-26T20:59:00+00:00"
        },
        "meta": {
          "lastUpdated": "2022-09-19T14:48:03Z",
          "versionId": "1"
        }
      },
      "search": {
        "mode": "match"
      }
    },
    {
      "fullUrl": "https://fhir.ggyxlz8lbozu.workload-prod-fhiraas.isccloud.io/MedicationAdministration/4b229eb45c43c642d3e14a62634e1a3a",
      "resource": {
        "resourceType": "MedicationAdministration",
        "id": "4b229eb45c43c642d3e14a62634e1a3a",
        "status": "completed",
        "medicationCodeableConcept": {
          "coding": {
            "system": "https://www.nlm.nih.gov/research/umls/rxnorm",
            "code": "32968",
            "display": "clopidogrel"
          }
        },
        "subject": {
          "reference": "Patient/ceba63b6dcbda783668cf3efeea1d3dd"
        },
        "effectivePeriod": {
          "start": "2014-05-27T08:46:00+00:00",
          "end": "2014-05-27T20:46:00+00:00"
        },
        "meta": {
          "lastUpdated": "2022-09-19T14:48:03Z",
          "versionId": "1"
        }
      },
      "search": {
        "mode": "match"
      }
    },
    {
      "fullUrl": "https://fhir.ggyxlz8lbozu.workload-prod-fhiraas.isccloud.io/MedicationAdministration/09c11426e17355e53366893ce616781e",
      "resource": {
        "resourceType": "MedicationAdministration",
        "id": "09c11426e17355e53366893ce616781e",
        "status": "completed",
        "medicationCodeableConcept": {
          "coding": {
            "system": "https://www.nlm.nih.gov/research/umls/rxnorm",
            "code": "32968",
            "display": "clopidogrel"
          }
        },
        "subject": {
          "reference": "Patient/ceba63b6dcbda783668cf3efeea1d3dd"
        },
        "effectivePeriod": {
          "start": "2014-05-28T08:50:00+00:00",
          "end": "2014-05-28T20:50:00+00:00"
        },
        "meta": {
          "lastUpdated": "2022-09-19T14:48:03Z",
          "versionId": "1"
        }
      },
      "search": {
        "mode": "match"
      }
    },
    {
      "fullUrl": "https://fhir.ggyxlz8lbozu.workload-prod-fhiraas.isccloud.io/MedicationAdministration/fb3f0ba3ffc0e4bbf9e6629e91182246",
      "resource": {
        "resourceType": "MedicationAdministration",
        "id": "fb3f0ba3ffc0e4bbf9e6629e91182246",
        "status": "completed",
        "medicationCodeableConcept": {
          "coding": {
            "system": "https://www.nlm.nih.gov/research/umls/rxnorm",
            "code": "32968",
            "display": "clopidogrel"
          }
        },
        "subject": {
          "reference": "Patient/ceba63b6dcbda783668cf3efeea1d3dd"
        },
        "effectivePeriod": {
          "start": "2014-05-29T08:28:00+00:00",
          "end": "2014-05-29T20:28:00+00:00"
        },
        "meta": {
          "lastUpdated": "2022-09-19T14:48:03Z",
          "versionId": "1"
        }
      },
      "search": {
        "mode": "match"
      }
    },
    {
      "fullUrl": "https://fhir.ggyxlz8lbozu.workload-prod-fhiraas.isccloud.io/MedicationAdministration/98e96b71bf3e75f6bdd063016373ccd2",
      "resource": {
        "resourceType": "MedicationAdministration",
        "id": "98e96b71bf3e75f6bdd063016373ccd2",
        "status": "completed",
        "medicationCodeableConcept": {
          "coding": {
            "system": "https://www.nlm.nih.gov/research/umls/rxnorm",
            "code": "32968",
            "display": "clopidogrel"
          }
        },
        "subject": {
          "reference": "Patient/ceba63b6dcbda783668cf3efeea1d3dd"
        },
        "effectivePeriod": {
          "start": "2014-05-30T08:36:00+00:00",
          "end": "2014-05-30T20:36:00+00:00"
        },
        "meta": {
          "lastUpdated": "2022-09-19T14:48:03Z",
          "versionId": "1"
        }
      },
      "search": {
        "mode": "match"
      }
    },
    {
      "fullUrl": "https://fhir.ggyxlz8lbozu.workload-prod-fhiraas.isccloud.io/MedicationAdministration/962526a4baad5d14b2ca90c1938de093",
      "resource": {
        "resourceType": "MedicationAdministration",
        "id": "962526a4baad5d14b2ca90c1938de093",
        "status": "completed",
        "medicationCodeableConcept": {
          "coding": {
            "system": "https://www.nlm.nih.gov/research/umls/rxnorm",
            "code": "32968",
            "display": "clopidogrel"
          }
        },
        "subject": {
          "reference": "Patient/ceba63b6dcbda783668cf3efeea1d3dd"
        },
        "effectivePeriod": {
          "start": "2014-05-31T08:36:00+00:00",
          "end": "2014-05-31T20:36:00+00:00"
        },
        "meta": {
          "lastUpdated": "2022-09-19T14:48:03Z",
          "versionId": "1"
        }
      },
      "search": {
        "mode": "match"
      }
    },
    {
      "fullUrl": "https://fhir.ggyxlz8lbozu.workload-prod-fhiraas.isccloud.io/MedicationAdministration/0acf922745ae77e7bbb541efc2db2381",
      "resource": {
        "resourceType": "MedicationAdministration",
        "id": "0acf922745ae77e7bbb541efc2db2381",
        "status": "completed",
        "medicationCodeableConcept": {
          "coding": {
            "system": "https://www.nlm.nih.gov/research/umls/rxnorm",
            "code": "32968",
            "display": "clopidogrel"
          }
        },
        "subject": {
          "reference": "Patient/ceba63b6dcbda783668cf3efeea1d3dd"
        },
        "effectivePeriod": {
          "start": "2014-06-01T08:45:00+00:00",
          "end": "2014-06-01T20:45:00+00:00"
        },
        "meta": {
          "lastUpdated": "2022-09-19T14:48:03Z",
          "versionId": "1"
        }
      },
      "search": {
        "mode": "match"
      }
    },
    {
      "fullUrl": "https://fhir.ggyxlz8lbozu.workload-prod-fhiraas.isccloud.io/MedicationAdministration/91de9010bcd5de71c60b0340b7bab12e",
      "resource": {
        "resourceType": "MedicationAdministration",
        "id": "91de9010bcd5de71c60b0340b7bab12e",
        "status": "completed",
        "medicationCodeableConcept": {
          "coding": {
            "system": "https://www.nlm.nih.gov/research/umls/rxnorm",
            "code": "32968",
            "display": "clopidogrel"
          }
        },
        "subject": {
          "reference": "Patient/ceba63b6dcbda783668cf3efeea1d3dd"
        },
        "effectivePeriod": {
          "start": "2014-06-02T08:47:00+00:00",
          "end": "2014-06-02T20:47:00+00:00"
        },
        "meta": {
          "lastUpdated": "2022-09-19T14:48:03Z",
          "versionId": "1"
        }
      },
      "search": {
        "mode": "match"
      }
    },
    {
      "fullUrl": "https://fhir.ggyxlz8lbozu.workload-prod-fhiraas.isccloud.io/MedicationAdministration/3a18896780816bc7bff363bdf52335a4",
      "resource": {
        "resourceType": "MedicationAdministration",
        "id": "3a18896780816bc7bff363bdf52335a4",
        "status": "completed",
        "medicationCodeableConcept": {
          "coding": {
            "system": "https://www.nlm.nih.gov/research/umls/rxnorm",
            "code": "32968",
            "display": "clopidogrel"
          }
        },
        "subject": {
          "reference": "Patient/ceba63b6dcbda783668cf3efeea1d3dd"
        },
        "effectivePeriod": {
          "start": "2014-06-03T08:55:00+00:00",
          "end": "2014-06-03T20:55:00+00:00"
        },
        "meta": {
          "lastUpdated": "2022-09-19T14:48:03Z",
          "versionId": "1"
        }
      },
      "search": {
        "mode": "match"
      }
    },
    {
      "fullUrl": "https://fhir.ggyxlz8lbozu.workload-prod-fhiraas.isccloud.io/MedicationAdministration/99d47c2dead99d6550177e254e94aac9",
      "resource": {
        "resourceType": "MedicationAdministration",
        "id": "99d47c2dead99d6550177e254e94aac9",
        "status": "completed",
        "medicationCodeableConcept": {
          "coding": {
            "system": "https://www.nlm.nih.gov/research/umls/rxnorm",
            "code": "32968",
            "display": "clopidogrel"
          }
        },
        "subject": {
          "reference": "Patient/ceba63b6dcbda783668cf3efeea1d3dd"
        },
        "effectivePeriod": {
          "start": "2014-06-04T08:18:00+00:00",
          "end": "2014-06-04T20:18:00+00:00"
        },
        "meta": {
          "lastUpdated": "2022-09-19T14:48:03Z",
          "versionId": "1"
        }
      },
      "search": {
        "mode": "match"
      }
    },
    {
      "fullUrl": "https://fhir.ggyxlz8lbozu.workload-prod-fhiraas.isccloud.io/MedicationAdministration/34603d03500e631b8e509f9825c6538d",
      "resource": {
        "resourceType": "MedicationAdministration",
        "id": "34603d03500e631b8e509f9825c6538d",
        "status": "completed",
        "medicationCodeableConcept": {
          "coding": {
            "system": "https://www.nlm.nih.gov/research/umls/rxnorm",
            "code": "32968",
            "display": "clopidogrel"
          }
        },
        "subject": {
          "reference": "Patient/ceba63b6dcbda783668cf3efeea1d3dd"
        },
        "effectivePeriod": {
          "start": "2014-06-05T08:51:00+00:00",
          "end": "2014-06-05T20:51:00+00:00"
        },
        "meta": {
          "lastUpdated": "2022-09-19T14:48:03Z",
          "versionId": "1"
        }
      },
      "search": {
        "mode": "match"
      }
    },
    {
      "fullUrl": "https://fhir.ggyxlz8lbozu.workload-prod-fhiraas.isccloud.io/MedicationAdministration/80ac6206eb4dacb86eb3878fc36bfd8c",
      "resource": {
        "resourceType": "MedicationAdministration",
        "id": "80ac6206eb4dacb86eb3878fc36bfd8c",
        "status": "completed",
        "medicationCodeableConcept": {
          "coding": {
            "system": "https://www.nlm.nih.gov/research/umls/rxnorm",
            "code": "32968",
            "display": "clopidogrel"
          }
        },
        "subject": {
          "reference": "Patient/ceba63b6dcbda783668cf3efeea1d3dd"
        },
        "effectivePeriod": {
          "start": "2014-06-06T08:51:00+00:00",
          "end": "2014-06-06T20:51:00+00:00"
        },
        "meta": {
          "lastUpdated": "2022-09-19T14:48:03Z",
          "versionId": "1"
        }
      },
      "search": {
        "mode": "match"
      }
    },
    {
      "fullUrl": "https://fhir.ggyxlz8lbozu.workload-prod-fhiraas.isccloud.io/MedicationAdministration/eb4ff3228dc9d0598d5f6be163f18acc",
      "resource": {
        "resourceType": "MedicationAdministration",
        "id": "eb4ff3228dc9d0598d5f6be163f18acc",
        "status": "completed",
        "medicationCodeableConcept": {
          "coding": {
            "system": "https://www.nlm.nih.gov/research/umls/rxnorm",
            "code": "32968",
            "display": "clopidogrel"
          }
        },
        "subject": {
          "reference": "Patient/ceba63b6dcbda783668cf3efeea1d3dd"
        },
        "effectivePeriod": {
          "start": "2014-06-07T08:25:00+00:00",
          "end": "2014-06-07T20:25:00+00:00"
        },
        "meta": {
          "lastUpdated": "2022-09-19T14:48:03Z",
          "versionId": "1"
        }
      },
      "search": {
        "mode": "match"
      }
    },
    {
      "fullUrl": "https://fhir.ggyxlz8lbozu.workload-prod-fhiraas.isccloud.io/MedicationAdministration/99ad4ce2efb0bde6fa1c613e7013576c",
      "resource": {
        "resourceType": "MedicationAdministration",
        "id": "99ad4ce2efb0bde6fa1c613e7013576c",
        "status": "completed",
        "medicationCodeableConcept": {
          "coding": {
            "system": "https://www.nlm.nih.gov/research/umls/rxnorm",
            "code": "32968",
            "display": "clopidogrel"
          }
        },
        "subject": {
          "reference": "Patient/ceba63b6dcbda783668cf3efeea1d3dd"
        },
        "effectivePeriod": {
          "start": "2014-06-08T08:40:00+00:00",
          "end": "2014-06-08T20:40:00+00:00"
        },
        "meta": {
          "lastUpdated": "2022-09-19T14:48:03Z",
          "versionId": "1"
        }
      },
      "search": {
        "mode": "match"
      }
    },
    {
      "fullUrl": "https://fhir.ggyxlz8lbozu.workload-prod-fhiraas.isccloud.io/MedicationAdministration/36611a5a97cac03b9229abbad9dd9442",
      "resource": {
        "resourceType": "MedicationAdministration",
        "id": "36611a5a97cac03b9229abbad9dd9442",
        "status": "completed",
        "medicationCodeableConcept": {
          "coding": {
            "system": "https://www.nlm.nih.gov/research/umls/rxnorm",
            "code": "32968",
            "display": "clopidogrel"
          }
        },
        "subject": {
          "reference": "Patient/ceba63b6dcbda783668cf3efeea1d3dd"
        },
        "effectivePeriod": {
          "start": "2014-06-09T08:09:00+00:00",
          "end": "2014-06-09T20:09:00+00:00"
        },
        "meta": {
          "lastUpdated": "2022-09-19T14:48:03Z",
          "versionId": "1"
        }
      },
      "search": {
        "mode": "match"
      }
    },
    {
      "fullUrl": "https://fhir.ggyxlz8lbozu.workload-prod-fhiraas.isccloud.io/MedicationAdministration/91a3486964eb1ef6d26d5fb22dea681b",
      "resource": {
        "resourceType": "MedicationAdministration",
        "id": "91a3486964eb1ef6d26d5fb22dea681b",
        "status": "completed",
        "medicationCodeableConcept": {
          "coding": {
            "system": "https://www.nlm.nih.gov/research/umls/rxnorm",
            "code": "32968",
            "display": "clopidogrel"
          }
        },
        "subject": {
          "reference": "Patient/ceba63b6dcbda783668cf3efeea1d3dd"
        },
        "effectivePeriod": {
          "start": "2014-06-10T08:15:00+00:00",
          "end": "2014-06-10T20:15:00+00:00"
        },
        "meta": {
          "lastUpdated": "2022-09-19T14:48:03Z",
          "versionId": "1"
        }
      },
      "search": {
        "mode": "match"
      }
    },
    {
      "fullUrl": "https://fhir.ggyxlz8lbozu.workload-prod-fhiraas.isccloud.io/MedicationAdministration/a735b7a642ec792484b4ce4430fef2a8",
      "resource": {
        "resourceType": "MedicationAdministration",
        "id": "a735b7a642ec792484b4ce4430fef2a8",
        "status": "completed",
        "medicationCodeableConcept": {
          "coding": {
            "system": "https://www.nlm.nih.gov/research/umls/rxnorm",
            "code": "32968",
            "display": "clopidogrel"
          }
        },
        "subject": {
          "reference": "Patient/ceba63b6dcbda783668cf3efeea1d3dd"
        },
        "effectivePeriod": {
          "start": "2014-06-11T08:26:00+00:00",
          "end": "2014-06-11T20:26:00+00:00"
        },
        "meta": {
          "lastUpdated": "2022-09-19T14:48:03Z",
          "versionId": "1"
        }
      },
      "search": {
        "mode": "match"
      }
    },
    {
      "fullUrl": "https://fhir.ggyxlz8lbozu.workload-prod-fhiraas.isccloud.io/MedicationAdministration/d17a06f85900af674f64f03c1d32a522",
      "resource": {
        "resourceType": "MedicationAdministration",
        "id": "d17a06f85900af674f64f03c1d32a522",
        "status": "completed",
        "medicationCodeableConcept": {
          "coding": {
            "system": "https://www.nlm.nih.gov/research/umls/rxnorm",
            "code": "32968",
            "display": "clopidogrel"
          }
        },
        "subject": {
          "reference": "Patient/ceba63b6dcbda783668cf3efeea1d3dd"
        },
        "effectivePeriod": {
          "start": "2014-06-12T08:05:00+00:00",
          "end": "2014-06-12T20:05:00+00:00"
        },
        "meta": {
          "lastUpdated": "2022-09-19T14:48:03Z",
          "versionId": "1"
        }
      },
      "search": {
        "mode": "match"
      }
    },
    {
      "fullUrl": "https://fhir.ggyxlz8lbozu.workload-prod-fhiraas.isccloud.io/MedicationAdministration/cbd721276dd7b788d049d20e933f0cd6",
      "resource": {
        "resourceType": "MedicationAdministration",
        "id": "cbd721276dd7b788d049d20e933f0cd6",
        "status": "completed",
        "medicationCodeableConcept": {
          "coding": {
            "system": "https://www.nlm.nih.gov/research/umls/rxnorm",
            "code": "32968",
            "display": "clopidogrel"
          }
        },
        "subject": {
          "reference": "Patient/ceba63b6dcbda783668cf3efeea1d3dd"
        },
        "effectivePeriod": {
          "start": "2014-06-13T08:44:00+00:00",
          "end": "2014-06-13T20:44:00+00:00"
        },
        "meta": {
          "lastUpdated": "2022-09-19T14:48:03Z",
          "versionId": "1"
        }
      },
      "search": {
        "mode": "match"
      }
    },
    {
      "fullUrl": "https://fhir.ggyxlz8lbozu.workload-prod-fhiraas.isccloud.io/MedicationAdministration/df9593cd74b617a39d165de6f8fb2db9",
      "resource": {
        "resourceType": "MedicationAdministration",
        "id": "df9593cd74b617a39d165de6f8fb2db9",
        "status": "completed",
        "medicationCodeableConcept": {
          "coding": {
            "system": "https://www.nlm.nih.gov/research/umls/rxnorm",
            "code": "32968",
            "display": "clopidogrel"
          }
        },
        "subject": {
          "reference": "Patient/ceba63b6dcbda783668cf3efeea1d3dd"
        },
        "effectivePeriod": {
          "start": "2014-06-14T08:39:00+00:00",
          "end": "2014-06-14T20:39:00+00:00"
        },
        "meta": {
          "lastUpdated": "2022-09-19T14:48:03Z",
          "versionId": "1"
        }
      },
      "search": {
        "mode": "match"
      }
    },
    {
      "fullUrl": "https://fhir.ggyxlz8lbozu.workload-prod-fhiraas.isccloud.io/MedicationAdministration/4a781ddcfb770e65bf87ed608908081a",
      "resource": {
        "resourceType": "MedicationAdministration",
        "id": "4a781ddcfb770e65bf87ed608908081a",
        "status": "completed",
        "medicationCodeableConcept": {
          "coding": {
            "system": "https://www.nlm.nih.gov/research/umls/rxnorm",
            "code": "32968",
            "display": "clopidogrel"
          }
        },
        "subject": {
          "reference": "Patient/ceba63b6dcbda783668cf3efeea1d3dd"
        },
        "effectivePeriod": {
          "start": "2014-06-15T08:50:00+00:00",
          "end": "2014-06-15T20:50:00+00:00"
        },
        "meta": {
          "lastUpdated": "2022-09-19T14:48:03Z",
          "versionId": "1"
        }
      },
      "search": {
        "mode": "match"
      }
    },
    {
      "fullUrl": "https://fhir.ggyxlz8lbozu.workload-prod-fhiraas.isccloud.io/MedicationAdministration/1283d80178e89d627b392e86930e66c5",
      "resource": {
        "resourceType": "MedicationAdministration",
        "id": "1283d80178e89d627b392e86930e66c5",
        "status": "completed",
        "medicationCodeableConcept": {
          "coding": {
            "system": "https://www.nlm.nih.gov/research/umls/rxnorm",
            "code": "32968",
            "display": "clopidogrel"
          }
        },
        "subject": {
          "reference": "Patient/ceba63b6dcbda783668cf3efeea1d3dd"
        },
        "effectivePeriod": {
          "start": "2014-06-16T08:59:00+00:00",
          "end": "2014-06-16T20:59:00+00:00"
        },
        "meta": {
          "lastUpdated": "2022-09-19T14:48:03Z",
          "versionId": "1"
        }
      },
      "search": {
        "mode": "match"
      }
    },
    {
      "fullUrl": "https://fhir.ggyxlz8lbozu.workload-prod-fhiraas.isccloud.io/MedicationAdministration/cb4ce88ed645387613dc8215e6fb5479",
      "resource": {
        "resourceType": "MedicationAdministration",
        "id": "cb4ce88ed645387613dc8215e6fb5479",
        "status": "completed",
        "medicationCodeableConcept": {
          "coding": {
            "system": "https://www.nlm.nih.gov/research/umls/rxnorm",
            "code": "32968",
            "display": "clopidogrel"
          }
        },
        "subject": {
          "reference": "Patient/ceba63b6dcbda783668cf3efeea1d3dd"
        },
        "effectivePeriod": {
          "start": "2014-06-17T08:04:00+00:00",
          "end": "2014-06-17T20:04:00+00:00"
        },
        "meta": {
          "lastUpdated": "2022-09-19T14:48:03Z",
          "versionId": "1"
        }
      },
      "search": {
        "mode": "match"
      }
    },
    {
      "fullUrl": "https://fhir.ggyxlz8lbozu.workload-prod-fhiraas.isccloud.io/MedicationAdministration/29f63a26ab6466e40badec0e963e3064",
      "resource": {
        "resourceType": "MedicationAdministration",
        "id": "29f63a26ab6466e40badec0e963e3064",
        "status": "completed",
        "medicationCodeableConcept": {
          "coding": {
            "system": "https://www.nlm.nih.gov/research/umls/rxnorm",
            "code": "1116632",
            "display": "ticagrelor"
          }
        },
        "subject": {
          "reference": "Patient/ceba63b6dcbda783668cf3efeea1d3dd"
        },
        "effectivePeriod": {
          "start": "2014-06-19T08:01:00+00:00",
          "end": "2014-06-19T20:01:00+00:00"
        },
        "meta": {
          "lastUpdated": "2022-09-19T14:48:03Z",
          "versionId": "1"
        }
      },
      "search": {
        "mode": "match"
      }
    },
    {
      "fullUrl": "https://fhir.ggyxlz8lbozu.workload-prod-fhiraas.isccloud.io/MedicationAdministration/27e805a850f37dd8f8398049ecc94897",
      "resource": {
        "resourceType": "MedicationAdministration",
        "id": "27e805a850f37dd8f8398049ecc94897",
        "status": "completed",
        "medicationCodeableConcept": {
          "coding": {
            "system": "https://www.nlm.nih.gov/research/umls/rxnorm",
            "code": "1116632",
            "display": "ticagrelor"
          }
        },
        "subject": {
          "reference": "Patient/ceba63b6dcbda783668cf3efeea1d3dd"
        },
        "effectivePeriod": {
          "start": "2014-06-20T08:54:00+00:00",
          "end": "2014-06-20T20:54:00+00:00"
        },
        "meta": {
          "lastUpdated": "2022-09-19T14:48:03Z",
          "versionId": "1"
        }
      },
      "search": {
        "mode": "match"
      }
    },
    {
      "fullUrl": "https://fhir.ggyxlz8lbozu.workload-prod-fhiraas.isccloud.io/MedicationAdministration/6a92d8e921800eadc27ae4afa4dd0947",
      "resource": {
        "resourceType": "MedicationAdministration",
        "id": "6a92d8e921800eadc27ae4afa4dd0947",
        "status": "completed",
        "medicationCodeableConcept": {
          "coding": {
            "system": "https://www.nlm.nih.gov/research/umls/rxnorm",
            "code": "1116632",
            "display": "ticagrelor"
          }
        },
        "subject": {
          "reference": "Patient/ceba63b6dcbda783668cf3efeea1d3dd"
        },
        "effectivePeriod": {
          "start": "2014-06-21T08:23:00+00:00",
          "end": "2014-06-21T20:23:00+00:00"
        },
        "meta": {
          "lastUpdated": "2022-09-19T14:48:03Z",
          "versionId": "1"
        }
      },
      "search": {
        "mode": "match"
      }
    },
    {
      "fullUrl": "https://fhir.ggyxlz8lbozu.workload-prod-fhiraas.isccloud.io/MedicationAdministration/5a348be25f460a11dce1764aaa34ff8d",
      "resource": {
        "resourceType": "MedicationAdministration",
        "id": "5a348be25f460a11dce1764aaa34ff8d",
        "status": "completed",
        "medicationCodeableConcept": {
          "coding": {
            "system": "https://www.nlm.nih.gov/research/umls/rxnorm",
            "code": "1116632",
            "display": "ticagrelor"
          }
        },
        "subject": {
          "reference": "Patient/ceba63b6dcbda783668cf3efeea1d3dd"
        },
        "effectivePeriod": {
          "start": "2014-06-22T08:57:00+00:00",
          "end": "2014-06-22T20:57:00+00:00"
        },
        "meta": {
          "lastUpdated": "2022-09-19T14:48:03Z",
          "versionId": "1"
        }
      },
      "search": {
        "mode": "match"
      }
    },
    {
      "fullUrl": "https://fhir.ggyxlz8lbozu.workload-prod-fhiraas.isccloud.io/MedicationAdministration/8b410e1d0faf50e02296db33217587a6",
      "resource": {
        "resourceType": "MedicationAdministration",
        "id": "8b410e1d0faf50e02296db33217587a6",
        "status": "completed",
        "medicationCodeableConcept": {
          "coding": {
            "system": "https://www.nlm.nih.gov/research/umls/rxnorm",
            "code": "1116632",
            "display": "ticagrelor"
          }
        },
        "subject": {
          "reference": "Patient/ceba63b6dcbda783668cf3efeea1d3dd"
        },
        "effectivePeriod": {
          "start": "2014-06-23T08:28:00+00:00",
          "end": "2014-06-23T20:28:00+00:00"
        },
        "meta": {
          "lastUpdated": "2022-09-19T14:48:03Z",
          "versionId": "1"
        }
      },
      "search": {
        "mode": "match"
      }
    },
    {
      "fullUrl": "https://fhir.ggyxlz8lbozu.workload-prod-fhiraas.isccloud.io/MedicationAdministration/2923650474e339c7c2155ece83c24fb8",
      "resource": {
        "resourceType": "MedicationAdministration",
        "id": "2923650474e339c7c2155ece83c24fb8",
        "status": "completed",
        "medicationCodeableConcept": {
          "coding": {
            "system": "https://www.nlm.nih.gov/research/umls/rxnorm",
            "code": "1116632",
            "display": "ticagrelor"
          }
        },
        "subject": {
          "reference": "Patient/ceba63b6dcbda783668cf3efeea1d3dd"
        },
        "effectivePeriod": {
          "start": "2014-06-24T08:51:00+00:00",
          "end": "2014-06-24T20:51:00+00:00"
        },
        "meta": {
          "lastUpdated": "2022-09-19T14:48:03Z",
          "versionId": "1"
        }
      },
      "search": {
        "mode": "match"
      }
    },
    {
      "fullUrl": "https://fhir.ggyxlz8lbozu.workload-prod-fhiraas.isccloud.io/MedicationAdministration/3d203a2648386da222d0e1e53dcb0ee5",
      "resource": {
        "resourceType": "MedicationAdministration",
        "id": "3d203a2648386da222d0e1e53dcb0ee5",
        "status": "completed",
        "medicationCodeableConcept": {
          "coding": {
            "system": "https://www.nlm.nih.gov/research/umls/rxnorm",
            "code": "1116632",
            "display": "ticagrelor"
          }
        },
        "subject": {
          "reference": "Patient/ceba63b6dcbda783668cf3efeea1d3dd"
        },
        "effectivePeriod": {
          "start": "2014-06-25T08:47:00+00:00",
          "end": "2014-06-25T20:47:00+00:00"
        },
        "meta": {
          "lastUpdated": "2022-09-19T14:48:03Z",
          "versionId": "1"
        }
      },
      "search": {
        "mode": "match"
      }
    },
    {
      "fullUrl": "https://fhir.ggyxlz8lbozu.workload-prod-fhiraas.isccloud.io/MedicationAdministration/d6c4afc07b8687f6fe8391dd13be98f0",
      "resource": {
        "resourceType": "MedicationAdministration",
        "id": "d6c4afc07b8687f6fe8391dd13be98f0",
        "status": "completed",
        "medicationCodeableConcept": {
          "coding": {
            "system": "https://www.nlm.nih.gov/research/umls/rxnorm",
            "code": "1116632",
            "display": "ticagrelor"
          }
        },
        "subject": {
          "reference": "Patient/ceba63b6dcbda783668cf3efeea1d3dd"
        },
        "effectivePeriod": {
          "start": "2014-06-26T08:10:00+00:00",
          "end": "2014-06-26T20:10:00+00:00"
        },
        "meta": {
          "lastUpdated": "2022-09-19T14:48:03Z",
          "versionId": "1"
        }
      },
      "search": {
        "mode": "match"
      }
    },
    {
      "fullUrl": "https://fhir.ggyxlz8lbozu.workload-prod-fhiraas.isccloud.io/MedicationAdministration/9c80c69875d08b9def0c4c0ba282ea34",
      "resource": {
        "resourceType": "MedicationAdministration",
        "id": "9c80c69875d08b9def0c4c0ba282ea34",
        "status": "completed",
        "medicationCodeableConcept": {
          "coding": {
            "system": "https://www.nlm.nih.gov/research/umls/rxnorm",
            "code": "1116632",
            "display": "ticagrelor"
          }
        },
        "subject": {
          "reference": "Patient/ceba63b6dcbda783668cf3efeea1d3dd"
        },
        "effectivePeriod": {
          "start": "2014-06-27T08:34:00+00:00",
          "end": "2014-06-27T20:34:00+00:00"
        },
        "meta": {
          "lastUpdated": "2022-09-19T14:48:03Z",
          "versionId": "1"
        }
      },
      "search": {
        "mode": "match"
      }
    },
    {
      "fullUrl": "https://fhir.ggyxlz8lbozu.workload-prod-fhiraas.isccloud.io/MedicationAdministration/368e9064d14a164219a11102a931f305",
      "resource": {
        "resourceType": "MedicationAdministration",
        "id": "368e9064d14a164219a11102a931f305",
        "status": "completed",
        "medicationCodeableConcept": {
          "coding": {
            "system": "https://www.nlm.nih.gov/research/umls/rxnorm",
            "code": "1116632",
            "display": "ticagrelor"
          }
        },
        "subject": {
          "reference": "Patient/ceba63b6dcbda783668cf3efeea1d3dd"
        },
        "effectivePeriod": {
          "start": "2014-06-28T08:24:00+00:00",
          "end": "2014-06-28T20:24:00+00:00"
        },
        "meta": {
          "lastUpdated": "2022-09-19T14:48:03Z",
          "versionId": "1"
        }
      },
      "search": {
        "mode": "match"
      }
    },
    {
      "fullUrl": "https://fhir.ggyxlz8lbozu.workload-prod-fhiraas.isccloud.io/MedicationAdministration/2efab85386985c04c8567ab6beb1c912",
      "resource": {
        "resourceType": "MedicationAdministration",
        "id": "2efab85386985c04c8567ab6beb1c912",
        "status": "completed",
        "medicationCodeableConcept": {
          "coding": {
            "system": "https://www.nlm.nih.gov/research/umls/rxnorm",
            "code": "1116632",
            "display": "ticagrelor"
          }
        },
        "subject": {
          "reference": "Patient/ceba63b6dcbda783668cf3efeea1d3dd"
        },
        "effectivePeriod": {
          "start": "2014-06-29T08:12:00+00:00",
          "end": "2014-06-29T20:12:00+00:00"
        },
        "meta": {
          "lastUpdated": "2022-09-19T14:48:03Z",
          "versionId": "1"
        }
      },
      "search": {
        "mode": "match"
      }
    },
    {
      "fullUrl": "https://fhir.ggyxlz8lbozu.workload-prod-fhiraas.isccloud.io/MedicationAdministration/3966b5bbafdba9ebf47315b9285672b8",
      "resource": {
        "resourceType": "MedicationAdministration",
        "id": "3966b5bbafdba9ebf47315b9285672b8",
        "status": "completed",
        "medicationCodeableConcept": {
          "coding": {
            "system": "https://www.nlm.nih.gov/research/umls/rxnorm",
            "code": "1116632",
            "display": "ticagrelor"
          }
        },
        "subject": {
          "reference": "Patient/ceba63b6dcbda783668cf3efeea1d3dd"
        },
        "effectivePeriod": {
          "start": "2014-06-30T08:20:00+00:00",
          "end": "2014-06-30T20:20:00+00:00"
        },
        "meta": {
          "lastUpdated": "2022-09-19T14:48:03Z",
          "versionId": "1"
        }
      },
      "search": {
        "mode": "match"
      }
    },
    {
      "fullUrl": "https://fhir.ggyxlz8lbozu.workload-prod-fhiraas.isccloud.io/MedicationAdministration/a99dfbe1d4c9ce3fad82a995e3cb7baa",
      "resource": {
        "resourceType": "MedicationAdministration",
        "id": "a99dfbe1d4c9ce3fad82a995e3cb7baa",
        "status": "completed",
        "medicationCodeableConcept": {
          "coding": {
            "system": "https://www.nlm.nih.gov/research/umls/rxnorm",
            "code": "1116632",
            "display": "ticagrelor"
          }
        },
        "subject": {
          "reference": "Patient/ceba63b6dcbda783668cf3efeea1d3dd"
        },
        "effectivePeriod": {
          "start": "2014-07-01T08:06:00+00:00",
          "end": "2014-07-01T20:06:00+00:00"
        },
        "meta": {
          "lastUpdated": "2022-09-19T14:48:03Z",
          "versionId": "1"
        }
      },
      "search": {
        "mode": "match"
      }
    },
    {
      "fullUrl": "https://fhir.ggyxlz8lbozu.workload-prod-fhiraas.isccloud.io/MedicationAdministration/4efd3398bff5077d63015afce2bcaa05",
      "resource": {
        "resourceType": "MedicationAdministration",
        "id": "4efd3398bff5077d63015afce2bcaa05",
        "status": "completed",
        "medicationCodeableConcept": {
          "coding": {
            "system": "https://www.nlm.nih.gov/research/umls/rxnorm",
            "code": "1116632",
            "display": "ticagrelor"
          }
        },
        "subject": {
          "reference": "Patient/ceba63b6dcbda783668cf3efeea1d3dd"
        },
        "effectivePeriod": {
          "start": "2014-07-02T08:36:00+00:00",
          "end": "2014-07-02T20:36:00+00:00"
        },
        "meta": {
          "lastUpdated": "2022-09-19T14:48:03Z",
          "versionId": "1"
        }
      },
      "search": {
        "mode": "match"
      }
    },
    {
      "fullUrl": "https://fhir.ggyxlz8lbozu.workload-prod-fhiraas.isccloud.io/MedicationAdministration/f005a861683e10d7fc85ec1a453b05cd",
      "resource": {
        "resourceType": "MedicationAdministration",
        "id": "f005a861683e10d7fc85ec1a453b05cd",
        "status": "completed",
        "medicationCodeableConcept": {
          "coding": {
            "system": "https://www.nlm.nih.gov/research/umls/rxnorm",
            "code": "1116632",
            "display": "ticagrelor"
          }
        },
        "subject": {
          "reference": "Patient/ceba63b6dcbda783668cf3efeea1d3dd"
        },
        "effectivePeriod": {
          "start": "2014-07-03T08:38:00+00:00",
          "end": "2014-07-03T20:38:00+00:00"
        },
        "meta": {
          "lastUpdated": "2022-09-19T14:48:03Z",
          "versionId": "1"
        }
      },
      "search": {
        "mode": "match"
      }
    },
    {
      "fullUrl": "https://fhir.ggyxlz8lbozu.workload-prod-fhiraas.isccloud.io/MedicationAdministration/c3f85baa4725a662e405601cf497f3fc",
      "resource": {
        "resourceType": "MedicationAdministration",
        "id": "c3f85baa4725a662e405601cf497f3fc",
        "status": "completed",
        "medicationCodeableConcept": {
          "coding": {
            "system": "https://www.nlm.nih.gov/research/umls/rxnorm",
            "code": "1116632",
            "display": "ticagrelor"
          }
        },
        "subject": {
          "reference": "Patient/ceba63b6dcbda783668cf3efeea1d3dd"
        },
        "effectivePeriod": {
          "start": "2014-07-04T08:23:00+00:00",
          "end": "2014-07-04T20:23:00+00:00"
        },
        "meta": {
          "lastUpdated": "2022-09-19T14:48:03Z",
          "versionId": "1"
        }
      },
      "search": {
        "mode": "match"
      }
    },
    {
      "fullUrl": "https://fhir.ggyxlz8lbozu.workload-prod-fhiraas.isccloud.io/MedicationAdministration/1966a153b1551a8912873a41426b7780",
      "resource": {
        "resourceType": "MedicationAdministration",
        "id": "1966a153b1551a8912873a41426b7780",
        "status": "completed",
        "medicationCodeableConcept": {
          "coding": {
            "system": "https://www.nlm.nih.gov/research/umls/rxnorm",
            "code": "1116632",
            "display": "ticagrelor"
          }
        },
        "subject": {
          "reference": "Patient/ceba63b6dcbda783668cf3efeea1d3dd"
        },
        "effectivePeriod": {
          "start": "2014-07-05T08:14:00+00:00",
          "end": "2014-07-05T20:14:00+00:00"
        },
        "meta": {
          "lastUpdated": "2022-09-19T14:48:03Z",
          "versionId": "1"
        }
      },
      "search": {
        "mode": "match"
      }
    },
    {
      "fullUrl": "https://fhir.ggyxlz8lbozu.workload-prod-fhiraas.isccloud.io/MedicationAdministration/30e264c8b3df9622e6e29fc448347ea5",
      "resource": {
        "resourceType": "MedicationAdministration",
        "id": "30e264c8b3df9622e6e29fc448347ea5",
        "status": "completed",
        "medicationCodeableConcept": {
          "coding": {
            "system": "https://www.nlm.nih.gov/research/umls/rxnorm",
            "code": "1116632",
            "display": "ticagrelor"
          }
        },
        "subject": {
          "reference": "Patient/ceba63b6dcbda783668cf3efeea1d3dd"
        },
        "effectivePeriod": {
          "start": "2014-07-06T08:56:00+00:00",
          "end": "2014-07-06T20:56:00+00:00"
        },
        "meta": {
          "lastUpdated": "2022-09-19T14:48:04Z",
          "versionId": "1"
        }
      },
      "search": {
        "mode": "match"
      }
    },
    {
      "fullUrl": "https://fhir.ggyxlz8lbozu.workload-prod-fhiraas.isccloud.io/MedicationAdministration/5f187f058d5f67dece552e1b59fdf9a7",
      "resource": {
        "resourceType": "MedicationAdministration",
        "id": "5f187f058d5f67dece552e1b59fdf9a7",
        "status": "completed",
        "medicationCodeableConcept": {
          "coding": {
            "system": "https://www.nlm.nih.gov/research/umls/rxnorm",
            "code": "1116632",
            "display": "ticagrelor"
          }
        },
        "subject": {
          "reference": "Patient/ceba63b6dcbda783668cf3efeea1d3dd"
        },
        "effectivePeriod": {
          "start": "2014-07-07T08:22:00+00:00",
          "end": "2014-07-07T20:22:00+00:00"
        },
        "meta": {
          "lastUpdated": "2022-09-19T14:48:04Z",
          "versionId": "1"
        }
      },
      "search": {
        "mode": "match"
      }
    },
    {
      "fullUrl": "https://fhir.ggyxlz8lbozu.workload-prod-fhiraas.isccloud.io/MedicationAdministration/7286ff178f65b4e08c685dd72fe2aa5a",
      "resource": {
        "resourceType": "MedicationAdministration",
        "id": "7286ff178f65b4e08c685dd72fe2aa5a",
        "status": "completed",
        "medicationCodeableConcept": {
          "coding": {
            "system": "https://www.nlm.nih.gov/research/umls/rxnorm",
            "code": "1116632",
            "display": "ticagrelor"
          }
        },
        "subject": {
          "reference": "Patient/ceba63b6dcbda783668cf3efeea1d3dd"
        },
        "effectivePeriod": {
          "start": "2014-07-08T08:23:00+00:00",
          "end": "2014-07-08T20:23:00+00:00"
        },
        "meta": {
          "lastUpdated": "2022-09-19T14:48:04Z",
          "versionId": "1"
        }
      },
      "search": {
        "mode": "match"
      }
    },
    {
      "fullUrl": "https://fhir.ggyxlz8lbozu.workload-prod-fhiraas.isccloud.io/MedicationStatement/d1e11109",
      "resource": {
        "resourceType": "MedicationStatement",
        "id": "d1e11109",
        "status": "completed",
        "medicationCodeableConcept": {
          "coding": {
            "system": "https://www.nlm.nih.gov/research/umls/rxnorm",
            "code": "-9999",
            "display": "CENTRUM"
          }
        },
        "subject": {
          "reference": "Patient/ceba63b6dcbda783668cf3efeea1d3dd"
        },
        "effectivePeriod": {
          "start": "2013-10"
        },
        "dosage": {
          "text": "1 TABLET ORAL QD",
          "timing": {
            "repeat": {
              "frequency": 1,
              "period": 1,
              "periodUnit": "d"
            }
          },
          "route": {
            "coding": {
              "system": "https://snomed.info/ct",
              "code": "26643006",
              "display": "oral"
            }
          },
          "doseAndRate": {
            "doseQuantity": {
              "value": 1,
              "system": "https://snomed.info/sct",
              "code": "428673006"
            }
          }
        },
        "meta": {
          "lastUpdated": "2022-09-19T14:48:00Z",
          "versionId": "1"
        }
      },
      "search": {
        "mode": "match"
      }
    },
    {
      "fullUrl": "https://fhir.ggyxlz8lbozu.workload-prod-fhiraas.isccloud.io/MedicationStatement/d1e11151",
      "resource": {
        "resourceType": "MedicationStatement",
        "id": "d1e11151",
        "status": "completed",
        "medicationCodeableConcept": {
          "coding": {
            "system": "https://www.nlm.nih.gov/research/umls/rxnorm",
            "code": "-9999",
            "display": "CENTRUM"
          }
        },
        "subject": {
          "reference": "Patient/ceba63b6dcbda783668cf3efeea1d3dd"
        },
        "effectivePeriod": {
          "start": "2013-10"
        },
        "dosage": {
          "text": "1 TABLET ORAL QD",
          "timing": {
            "repeat": {
              "frequency": 1,
              "period": 1,
              "periodUnit": "d"
            }
          },
          "route": {
            "coding": {
              "system": "https://snomed.info/ct",
              "code": "26643006",
              "display": "oral"
            }
          },
          "doseAndRate": {
            "doseQuantity": {
              "value": 1,
              "system": "https://snomed.info/sct",
              "code": "428673006"
            }
          }
        },
        "meta": {
          "lastUpdated": "2022-09-19T14:48:00Z",
          "versionId": "1"
        }
      },
      "search": {
        "mode": "match"
      }
    },
    {
      "fullUrl": "https://fhir.ggyxlz8lbozu.workload-prod-fhiraas.isccloud.io/MedicationStatement/d1e11193",
      "resource": {
        "resourceType": "MedicationStatement",
        "id": "d1e11193",
        "status": "completed",
        "medicationCodeableConcept": {
          "coding": {
            "system": "https://www.nlm.nih.gov/research/umls/rxnorm",
            "code": "-9999",
            "display": "CENTRUM"
          }
        },
        "subject": {
          "reference": "Patient/ceba63b6dcbda783668cf3efeea1d3dd"
        },
        "effectivePeriod": {
          "start": "2013-10"
        },
        "dosage": {
          "text": "1 TABLET ORAL QD",
          "timing": {
            "repeat": {
              "frequency": 1,
              "period": 1,
              "periodUnit": "d"
            }
          },
          "route": {
            "coding": {
              "system": "https://snomed.info/ct",
              "code": "26643006",
              "display": "oral"
            }
          },
          "doseAndRate": {
            "doseQuantity": {
              "value": 1,
              "system": "https://snomed.info/sct",
              "code": "428673006"
            }
          }
        },
        "meta": {
          "lastUpdated": "2022-09-19T14:48:00Z",
          "versionId": "1"
        }
      },
      "search": {
        "mode": "match"
      }
    },
    {
      "fullUrl": "https://fhir.ggyxlz8lbozu.workload-prod-fhiraas.isccloud.io/MedicationStatement/d1e11235",
      "resource": {
        "resourceType": "MedicationStatement",
        "id": "d1e11235",
        "status": "completed",
        "medicationCodeableConcept": {
          "coding": {
            "system": "https://www.nlm.nih.gov/research/umls/rxnorm",
            "code": "-9999",
            "display": "CENTRUM"
          }
        },
        "subject": {
          "reference": "Patient/ceba63b6dcbda783668cf3efeea1d3dd"
        },
        "effectivePeriod": {
          "start": "2013-10"
        },
        "dosage": {
          "text": "1 TABLET ORAL QD",
          "timing": {
            "repeat": {
              "frequency": 1,
              "period": 1,
              "periodUnit": "d"
            }
          },
          "route": {
            "coding": {
              "system": "https://snomed.info/ct",
              "code": "26643006",
              "display": "oral"
            }
          },
          "doseAndRate": {
            "doseQuantity": {
              "value": 1,
              "system": "https://snomed.info/sct",
              "code": "428673006"
            }
          }
        },
        "meta": {
          "lastUpdated": "2022-09-19T14:48:00Z",
          "versionId": "1"
        }
      },
      "search": {
        "mode": "match"
      }
    },
    {
      "fullUrl": "https://fhir.ggyxlz8lbozu.workload-prod-fhiraas.isccloud.io/MedicationStatement/d1e11278",
      "resource": {
        "resourceType": "MedicationStatement",
        "id": "d1e11278",
        "status": "completed",
        "medicationCodeableConcept": {
          "coding": {
            "system": "https://www.nlm.nih.gov/research/umls/rxnorm",
            "code": "-9999",
            "display": "CENTRUM"
          }
        },
        "subject": {
          "reference": "Patient/ceba63b6dcbda783668cf3efeea1d3dd"
        },
        "effectivePeriod": {
          "start": "2013-10"
        },
        "dosage": {
          "text": "1 TABLET ORAL QD",
          "timing": {
            "repeat": {
              "frequency": 1,
              "period": 1,
              "periodUnit": "d"
            }
          },
          "route": {
            "coding": {
              "system": "https://snomed.info/ct",
              "code": "26643006",
              "display": "oral"
            }
          },
          "doseAndRate": {
            "doseQuantity": {
              "value": 1,
              "system": "https://snomed.info/sct",
              "code": "428673006"
            }
          }
        },
        "meta": {
          "lastUpdated": "2022-09-19T14:48:00Z",
          "versionId": "1"
        }
      },
      "search": {
        "mode": "match"
      }
    },
    {
      "fullUrl": "https://fhir.ggyxlz8lbozu.workload-prod-fhiraas.isccloud.io/MedicationStatement/d1e11320",
      "resource": {
        "resourceType": "MedicationStatement",
        "id": "d1e11320",
        "status": "completed",
        "medicationCodeableConcept": {
          "coding": {
            "system": "https://www.nlm.nih.gov/research/umls/rxnorm",
            "code": "-9999",
            "display": "CENTRUM"
          }
        },
        "subject": {
          "reference": "Patient/ceba63b6dcbda783668cf3efeea1d3dd"
        },
        "effectivePeriod": {
          "start": "2013-10"
        },
        "dosage": {
          "text": "1 TABLET ORAL QD",
          "timing": {
            "repeat": {
              "frequency": 1,
              "period": 1,
              "periodUnit": "d"
            }
          },
          "route": {
            "coding": {
              "system": "https://snomed.info/ct",
              "code": "26643006",
              "display": "oral"
            }
          },
          "doseAndRate": {
            "doseQuantity": {
              "value": 1,
              "system": "https://snomed.info/sct",
              "code": "428673006"
            }
          }
        },
        "meta": {
          "lastUpdated": "2022-09-19T14:48:00Z",
          "versionId": "1"
        }
      },
      "search": {
        "mode": "match"
      }
    },
    {
      "fullUrl": "https://fhir.ggyxlz8lbozu.workload-prod-fhiraas.isccloud.io/MedicationStatement/d1e11362",
      "resource": {
        "resourceType": "MedicationStatement",
        "id": "d1e11362",
        "status": "completed",
        "medicationCodeableConcept": {
          "coding": {
            "system": "https://www.nlm.nih.gov/research/umls/rxnorm",
            "code": "-9999",
            "display": "CENTRUM"
          }
        },
        "subject": {
          "reference": "Patient/ceba63b6dcbda783668cf3efeea1d3dd"
        },
        "effectivePeriod": {
          "start": "2013-10"
        },
        "dosage": {
          "text": "1 TABLET ORAL QD",
          "timing": {
            "repeat": {
              "frequency": 1,
              "period": 1,
              "periodUnit": "d"
            }
          },
          "route": {
            "coding": {
              "system": "https://snomed.info/ct",
              "code": "26643006",
              "display": "oral"
            }
          },
          "doseAndRate": {
            "doseQuantity": {
              "value": 1,
              "system": "https://snomed.info/sct",
              "code": "428673006"
            }
          }
        },
        "meta": {
          "lastUpdated": "2022-09-19T14:48:00Z",
          "versionId": "1"
        }
      },
      "search": {
        "mode": "match"
      }
    },
    {
      "fullUrl": "https://fhir.ggyxlz8lbozu.workload-prod-fhiraas.isccloud.io/MedicationStatement/d1e11404",
      "resource": {
        "resourceType": "MedicationStatement",
        "id": "d1e11404",
        "status": "completed",
        "medicationCodeableConcept": {
          "coding": {
            "system": "https://www.nlm.nih.gov/research/umls/rxnorm",
            "code": "-9999",
            "display": "CENTRUM"
          }
        },
        "subject": {
          "reference": "Patient/ceba63b6dcbda783668cf3efeea1d3dd"
        },
        "effectivePeriod": {
          "start": "2013-10"
        },
        "dosage": {
          "text": "1 TABLET ORAL QD",
          "timing": {
            "repeat": {
              "frequency": 1,
              "period": 1,
              "periodUnit": "d"
            }
          },
          "route": {
            "coding": {
              "system": "https://snomed.info/ct",
              "code": "26643006",
              "display": "oral"
            }
          },
          "doseAndRate": {
            "doseQuantity": {
              "value": 1,
              "system": "https://snomed.info/sct",
              "code": "428673006"
            }
          }
        },
        "meta": {
          "lastUpdated": "2022-09-19T14:48:00Z",
          "versionId": "1"
        }
      },
      "search": {
        "mode": "match"
      }
    },
    {
      "fullUrl": "https://fhir.ggyxlz8lbozu.workload-prod-fhiraas.isccloud.io/MedicationStatement/d1e11446",
      "resource": {
        "resourceType": "MedicationStatement",
        "id": "d1e11446",
        "status": "completed",
        "medicationCodeableConcept": {
          "coding": {
            "system": "https://www.nlm.nih.gov/research/umls/rxnorm",
            "code": "-9999",
            "display": "CENTRUM"
          }
        },
        "subject": {
          "reference": "Patient/ceba63b6dcbda783668cf3efeea1d3dd"
        },
        "effectivePeriod": {
          "start": "2013-10"
        },
        "dosage": {
          "text": "1 TABLET ORAL QD",
          "timing": {
            "repeat": {
              "frequency": 1,
              "period": 1,
              "periodUnit": "d"
            }
          },
          "route": {
            "coding": {
              "system": "https://snomed.info/ct",
              "code": "26643006",
              "display": "oral"
            }
          },
          "doseAndRate": {
            "doseQuantity": {
              "value": 1,
              "system": "https://snomed.info/sct",
              "code": "428673006"
            }
          }
        },
        "meta": {
          "lastUpdated": "2022-09-19T14:48:00Z",
          "versionId": "1"
        }
      },
      "search": {
        "mode": "match"
      }
    },
    {
      "fullUrl": "https://fhir.ggyxlz8lbozu.workload-prod-fhiraas.isccloud.io/MedicationStatement/d1e11488",
      "resource": {
        "resourceType": "MedicationStatement",
        "id": "d1e11488",
        "status": "completed",
        "medicationCodeableConcept": {
          "coding": {
            "system": "https://www.nlm.nih.gov/research/umls/rxnorm",
            "code": "-9999",
            "display": "CENTRUM"
          }
        },
        "subject": {
          "reference": "Patient/ceba63b6dcbda783668cf3efeea1d3dd"
        },
        "effectivePeriod": {
          "start": "2013-10"
        },
        "dosage": {
          "text": "1 TABLET ORAL QD",
          "timing": {
            "repeat": {
              "frequency": 1,
              "period": 1,
              "periodUnit": "d"
            }
          },
          "route": {
            "coding": {
              "system": "https://snomed.info/ct",
              "code": "26643006",
              "display": "oral"
            }
          },
          "doseAndRate": {
            "doseQuantity": {
              "value": 1,
              "system": "https://snomed.info/sct",
              "code": "428673006"
            }
          }
        },
        "meta": {
          "lastUpdated": "2022-09-19T14:48:00Z",
          "versionId": "1"
        }
      },
      "search": {
        "mode": "match"
      }
    },
    {
      "fullUrl": "https://fhir.ggyxlz8lbozu.workload-prod-fhiraas.isccloud.io/MedicationStatement/d1e11531",
      "resource": {
        "resourceType": "MedicationStatement",
        "id": "d1e11531",
        "status": "completed",
        "medicationCodeableConcept": {
          "coding": {
            "system": "https://www.nlm.nih.gov/research/umls/rxnorm",
            "code": "-9999",
            "display": "CENTRUM"
          }
        },
        "subject": {
          "reference": "Patient/ceba63b6dcbda783668cf3efeea1d3dd"
        },
        "effectivePeriod": {
          "start": "2013-10"
        },
        "dosage": {
          "text": "1 TABLET ORAL QD",
          "timing": {
            "repeat": {
              "frequency": 1,
              "period": 1,
              "periodUnit": "d"
            }
          },
          "route": {
            "coding": {
              "system": "https://snomed.info/ct",
              "code": "26643006",
              "display": "oral"
            }
          },
          "doseAndRate": {
            "doseQuantity": {
              "value": 1,
              "system": "https://snomed.info/sct",
              "code": "428673006"
            }
          }
        },
        "meta": {
          "lastUpdated": "2022-09-19T14:48:00Z",
          "versionId": "1"
        }
      },
      "search": {
        "mode": "match"
      }
    },
    {
      "fullUrl": "https://fhir.ggyxlz8lbozu.workload-prod-fhiraas.isccloud.io/MedicationStatement/d1e11573",
      "resource": {
        "resourceType": "MedicationStatement",
        "id": "d1e11573",
        "status": "completed",
        "medicationCodeableConcept": {
          "coding": {
            "system": "https://www.nlm.nih.gov/research/umls/rxnorm",
            "code": "-9999",
            "display": "CENTRUM"
          }
        },
        "subject": {
          "reference": "Patient/ceba63b6dcbda783668cf3efeea1d3dd"
        },
        "effectivePeriod": {
          "start": "2013-10"
        },
        "dosage": {
          "text": "1 TABLET ORAL QD",
          "timing": {
            "repeat": {
              "frequency": 1,
              "period": 1,
              "periodUnit": "d"
            }
          },
          "route": {
            "coding": {
              "system": "https://snomed.info/ct",
              "code": "26643006",
              "display": "oral"
            }
          },
          "doseAndRate": {
            "doseQuantity": {
              "value": 1,
              "system": "https://snomed.info/sct",
              "code": "428673006"
            }
          }
        },
        "meta": {
          "lastUpdated": "2022-09-19T14:48:00Z",
          "versionId": "1"
        }
      },
      "search": {
        "mode": "match"
      }
    },
    {
      "fullUrl": "https://fhir.ggyxlz8lbozu.workload-prod-fhiraas.isccloud.io/MedicationStatement/d1e11615",
      "resource": {
        "resourceType": "MedicationStatement",
        "id": "d1e11615",
        "status": "completed",
        "medicationCodeableConcept": {
          "coding": {
            "system": "https://www.nlm.nih.gov/research/umls/rxnorm",
            "code": "-9999",
            "display": "CENTRUM"
          }
        },
        "subject": {
          "reference": "Patient/ceba63b6dcbda783668cf3efeea1d3dd"
        },
        "effectivePeriod": {
          "start": "2013-10"
        },
        "dosage": {
          "text": "1 TABLET ORAL QD",
          "timing": {
            "repeat": {
              "frequency": 1,
              "period": 1,
              "periodUnit": "d"
            }
          },
          "route": {
            "coding": {
              "system": "https://snomed.info/ct",
              "code": "26643006",
              "display": "oral"
            }
          },
          "doseAndRate": {
            "doseQuantity": {
              "value": 1,
              "system": "https://snomed.info/sct",
              "code": "428673006"
            }
          }
        },
        "meta": {
          "lastUpdated": "2022-09-19T14:48:00Z",
          "versionId": "1"
        }
      },
      "search": {
        "mode": "match"
      }
    },
    {
      "fullUrl": "https://fhir.ggyxlz8lbozu.workload-prod-fhiraas.isccloud.io/MedicationStatement/d1e11657",
      "resource": {
        "resourceType": "MedicationStatement",
        "id": "d1e11657",
        "status": "completed",
        "medicationCodeableConcept": {
          "coding": {
            "system": "https://www.nlm.nih.gov/research/umls/rxnorm",
            "code": "5492",
            "display": "HYDROCORTISONE"
          }
        },
        "subject": {
          "reference": "Patient/ceba63b6dcbda783668cf3efeea1d3dd"
        },
        "effectivePeriod": {
          "start": "2014-02-20",
          "end": "2014-02-25"
        },
        "dosage": {
          "text": "1 VIAL TOPICAL QD",
          "timing": {
            "repeat": {
              "frequency": 1,
              "period": 1,
              "periodUnit": "d"
            }
          },
          "route": {
            "coding": {
              "system": "https://snomed.info/ct",
              "code": "6064005",
              "display": "topical"
            }
          },
          "doseAndRate": {
            "doseQuantity": {
              "value": 1,
              "system": "https://snomed.info/sct",
              "code": "415818006"
            }
          }
        },
        "meta": {
          "lastUpdated": "2022-09-19T14:48:00Z",
          "versionId": "1"
        }
      },
      "search": {
        "mode": "match"
      }
    },
    {
      "fullUrl": "https://fhir.ggyxlz8lbozu.workload-prod-fhiraas.isccloud.io/MedicationStatement/d1e11703",
      "resource": {
        "resourceType": "MedicationStatement",
        "id": "d1e11703",
        "status": "completed",
        "medicationCodeableConcept": {
          "coding": {
            "system": "https://www.nlm.nih.gov/research/umls/rxnorm",
            "code": "5492",
            "display": "HYDROCORTISONE"
          }
        },
        "subject": {
          "reference": "Patient/ceba63b6dcbda783668cf3efeea1d3dd"
        },
        "effectivePeriod": {
          "start": "2014-03-21",
          "end": "2014-03-23"
        },
        "dosage": {
          "text": "1 VIAL TOPICAL QD",
          "timing": {
            "repeat": {
              "frequency": 1,
              "period": 1,
              "periodUnit": "d"
            }
          },
          "route": {
            "coding": {
              "system": "https://snomed.info/ct",
              "code": "6064005",
              "display": "topical"
            }
          },
          "doseAndRate": {
            "doseQuantity": {
              "value": 1,
              "system": "https://snomed.info/sct",
              "code": "415818006"
            }
          }
        },
        "meta": {
          "lastUpdated": "2022-09-19T14:48:00Z",
          "versionId": "1"
        }
      },
      "search": {
        "mode": "match"
      }
    },
    {
      "fullUrl": "https://fhir.ggyxlz8lbozu.workload-prod-fhiraas.isccloud.io/MedicationStatement/d1e11749",
      "resource": {
        "resourceType": "MedicationStatement",
        "id": "d1e11749",
        "status": "completed",
        "medicationCodeableConcept": {
          "coding": {
            "system": "https://www.nlm.nih.gov/research/umls/rxnorm",
            "code": "5492",
            "display": "HYDROCORTISONE"
          }
        },
        "subject": {
          "reference": "Patient/ceba63b6dcbda783668cf3efeea1d3dd"
        },
        "effectivePeriod": {
          "start": "2014-04-18",
          "end": "2014-04-22"
        },
        "dosage": {
          "text": "1 VIAL TOPICAL QD",
          "timing": {
            "repeat": {
              "frequency": 1,
              "period": 1,
              "periodUnit": "d"
            }
          },
          "route": {
            "coding": {
              "system": "https://snomed.info/ct",
              "code": "6064005",
              "display": "topical"
            }
          },
          "doseAndRate": {
            "doseQuantity": {
              "value": 1,
              "system": "https://snomed.info/sct",
              "code": "415818006"
            }
          }
        },
        "meta": {
          "lastUpdated": "2022-09-19T14:48:00Z",
          "versionId": "1"
        }
      },
      "search": {
        "mode": "match"
      }
    },
    {
      "fullUrl": "https://fhir.ggyxlz8lbozu.workload-prod-fhiraas.isccloud.io/MedicationStatement/d1e11796",
      "resource": {
        "resourceType": "MedicationStatement",
        "id": "d1e11796",
        "status": "completed",
        "medicationCodeableConcept": {
          "coding": {
            "system": "https://www.nlm.nih.gov/research/umls/rxnorm",
            "code": "5492",
            "display": "HYDROCORTISONE"
          }
        },
        "subject": {
          "reference": "Patient/ceba63b6dcbda783668cf3efeea1d3dd"
        },
        "effectivePeriod": {
          "start": "2014-05-23"
        },
        "dosage": {
          "text": "1 VIAL TOPICAL PRN",
          "asNeededBoolean": true,
          "route": {
            "coding": {
              "system": "https://snomed.info/ct",
              "code": "6064005",
              "display": "topical"
            }
          },
          "doseAndRate": {
            "doseQuantity": {
              "value": 1,
              "system": "https://snomed.info/sct",
              "code": "415818006"
            }
          }
        },
        "meta": {
          "lastUpdated": "2022-09-19T14:48:00Z",
          "versionId": "1"
        }
      },
      "search": {
        "mode": "match"
      }
    },
    {
      "fullUrl": "https://fhir.ggyxlz8lbozu.workload-prod-fhiraas.isccloud.io/MedicationStatement/d1e11838",
      "resource": {
        "resourceType": "MedicationStatement",
        "id": "d1e11838",
        "status": "completed",
        "medicationCodeableConcept": {
          "coding": {
            "system": "https://www.nlm.nih.gov/research/umls/rxnorm",
            "code": "5492",
            "display": "HYDROCORTISONE"
          }
        },
        "subject": {
          "reference": "Patient/ceba63b6dcbda783668cf3efeea1d3dd"
        },
        "effectivePeriod": {
          "start": "2014-05-23"
        },
        "dosage": {
          "text": "1 VIAL TOPICAL PRN",
          "asNeededBoolean": true,
          "route": {
            "coding": {
              "system": "https://snomed.info/ct",
              "code": "6064005",
              "display": "topical"
            }
          },
          "doseAndRate": {
            "doseQuantity": {
              "value": 1,
              "system": "https://snomed.info/sct",
              "code": "415818006"
            }
          }
        },
        "meta": {
          "lastUpdated": "2022-09-19T14:48:00Z",
          "versionId": "1"
        }
      },
      "search": {
        "mode": "match"
      }
    }
  ]
}